timestamp,ref_timestamp,ref_lat,ref_lon,x,y,z,delta_xy[0],delta_xy[1],delta_z,vx,vy,vz,z_deriv,delta_vxy[0],delta_vxy[1],delta_vz,ax,ay,az,heading,delta_heading,ref_alt,dist_bottom,eph,epv,evh,evv,vxy_max,vz_max,hagl_min,hagl_max,xy_valid,z_valid,v_xy_valid,v_z_valid,xy_reset_counter,z_reset_counter,vxy_reset_counter,vz_reset_counter,heading_reset_counter,xy_global,z_global,dist_bottom_valid
17933419,0,0.0,0.0,0.0,0.0,0.6980637,-2.7622531e-05,-1.6538992e-05,0.0,0.052735437,0.099312596,0.13485387,0.016148487,-0.0055634505,-0.0033311164,0.0,-0.09019995,-0.3125435,0.053920142,-1.718024,0.10878013,0.0,0.1,0.37960112,0.65139174,0.37186596,0.2326395,inf,inf,inf,inf,0,1,0,1,1,0,1,0,2,0,0,1
17943333,0,0.0,0.0,0.0,0.0,0.6980674,-2.7622531e-05,-1.6538992e-05,0.0,0.05221554,0.10016702,0.13418138,0.015404963,-0.0055634505,-0.0033311164,0.0,0.12950617,0.32908085,-0.077751555,-1.7181453,0.10878013,0.0,0.1,0.38269478,0.65335053,0.3737814,0.23299597,inf,inf,inf,inf,0,1,0,1,1,0,1,0,2,0,0,1
18042626,0,0.0,0.0,0.0,0.0,0.6971425,-2.7622531e-05,-1.6538992e-05,0.0,0.044265274,0.08005716,0.13360271,0.01326725,-0.0055634505,-0.0033311164,0.0,-0.14651856,-0.21922897,-0.05010211,-1.7179563,0.10878013,0.0,0.1,0.41498002,0.6500555,0.3941302,0.23086992,inf,inf,inf,inf,0,1,0,1,1,0,1,0,2,0,0,1
18131989,0,0.0,0.0,0.0,0.0,0.6966882,-2.7622531e-05,-1.6538992e-05,0.0,0.033989437,0.06699371,0.133795,0.012937027,-0.0055634505,-0.0033311164,0.0,-1.1860348,-0.08469946,-0.7787685,-1.7179415,0.10878013,0.0,0.1,0.44620204,0.64498705,0.41199198,0.22835693,inf,inf,inf,inf,0,1,0,1,1,0,1,0,2,0,0,1
18241211,0,0.0,0.0,0.0,0.0,0.69570607,-2.7622531e-05,-1.6538992e-05,0.0,0.031689636,0.06310949,0.12194603,5.7992234e-05,-0.0055634505,-0.0033311164,0.0,1.0377885,0.020751549,-1.4974198,-1.7176948,0.10878013,0.0,0.1,0.41111436,0.6436193,0.38431004,0.22636658,inf,inf,inf,inf,0,1,0,1,1,0,1,0,2,0,0,1
18340503,0,0.0,0.0,0.0,0.0,0.6934245,-2.7622531e-05,-1.6538992e-05,0.0,0.019106006,0.04946377,0.13190247,0.007852372,-0.0055634505,-0.0033311164,0.0,-0.16493852,-0.01998953,-0.3644431,-1.7165583,0.10878013,0.0,0.1,0.4450693,0.6516056,0.4033969,0.22699736,inf,inf,inf,inf,0,1,0,1,1,0,1,0,2,0,0,1
18439796,0,0.0,0.0,0.0,0.0,0.68938833,-2.7622531e-05,-1.6538992e-05,0.0,0.012906978,0.038579565,0.12972143,0.002006651,-0.0055634505,-0.0033311164,0.0,0.7952137,0.12817234,-0.5381624,-1.7145952,0.10878013,0.0,0.1,0.40658408,0.6482972,0.37395117,0.22470583,inf,inf,inf,inf,0,1,0,1,1,0,1,0,2,0,0,1
18539109,0,0.0,0.0,0.0,0.0,0.6844211,-2.7622531e-05,-1.6538992e-05,0.0,0.004844089,0.030467013,0.12944019,-0.0023373566,-0.0055634505,-0.0033311164,0.0,-0.16327605,0.47877458,0.25055516,-1.7137806,0.10878013,0.0,0.1,0.43959722,0.64511824,0.39198893,0.22257656,inf,inf,inf,inf,0,1,0,1,1,0,1,0,2,0,0,1
18638495,0,0.0,0.0,0.0,0.0,0.67930305,-2.7622531e-05,-1.6538992e-05,0.0,-0.0007034553,0.018872356,0.12467418,-0.010775968,-0.0055634505,-0.0033311164,0.0,0.023180533,0.4221528,-0.0043904814,-1.7112038,0.10878013,0.0,0.1,0.4015978,0.64177144,0.36329162,0.2203288,inf,inf,inf,inf,0,1,0,1,1,0,1,0,2,0,0,1
18742639,0,0.0,0.0,0.0,0.0,0.6757029,-2.7622531e-05,-1.6538992e-05,0.0,-0.005072585,0.011773222,0.123147294,-0.01459471,-0.0055634505,-0.0033311164,0.0,0.038400706,0.3107788,0.10031946,-1.7095876,0.10878013,0.0,0.1,0.4336348,0.63854784,0.38050205,0.21823594,inf,inf,inf,inf,0,1,0,1,1,0,1,0,2,0,0,1
18832001,0,0.0,0.0,0.0,0.0,0.672037,-2.7622531e-05,-1.6538992e-05,0.0,-0.012231892,0.0046351645,0.12783535,-0.011611713,-0.0055634505,-0.0033311164,0.0,-0.31008932,-0.5568967,0.44626105,-1.7085733,0.10878013,0.0,0.1,0.39419696,0.64419174,0.35186067,0.21835585,inf,inf,inf,inf,0,1,0,1,1,0,1,0,2,0,0,1
18931477,0,0.0,0.0,0.0,0.0,0.66859496,-2.7622531e-05,-1.6538992e-05,0.0,-0.016648853,-0.0014071431,0.12503701,-0.0150295645,-0.0055634505,-0.0033311164,0.0,-0.4507379,-0.0552271,0.6487786,-1.7064304,0.10878013,0.0,0.1,0.42518872,0.64098036,0.36908177,0.21641248,inf,inf,inf,inf,0,1,0,1,1,0,1,0,2,0,0,1
19035551,0,0.0,0.0,0.0,0.0,0.66785043,-2.7622531e-05,-1.6538992e-05,0.0,-0.020553831,-0.007002817,0.12439721,-0.014290423,-0.0055634505,-0.0033311164,0.0,-0.21173555,0.21657577,0.42005283,-1.7048129,0.10878013,0.0,0.1,0.39038038,0.6375774,0.34328496,0.21423598,inf,inf,inf,inf,0,1,0,1,1,0,1,0,2,0,0,1
19134843,0,0.0,0.0,0.0,0.0,0.668271,-2.7622531e-05,-1.6538992e-05,0.0,-0.023059009,-0.014309567,0.12357704,-0.012201836,-0.0055634505,-0.0033311164,0.0,0.42013013,0.5581567,0.028049212,-1.7037538,0.10878013,0.0,0.1,0.42055875,0.634343,0.3597926,0.21232958,inf,inf,inf,inf,0,1,0,1,1,0,1,0,2,0,0,1
19244077,0,0.0,0.0,0.0,0.0,0.66831887,-2.7622531e-05,-1.6538992e-05,0.0,-0.02521764,-0.018859029,0.12428013,-0.008990555,-0.0055634505,-0.0033311164,0.0,0.5946854,0.40521806,0.109314084,-1.7020656,0.10878013,0.0,0.1,0.38894933,0.6328283,0.33604306,0.21055338,inf,inf,inf,inf,0,1,0,1,1,0,1,0,2,0,0,1
19333425,0,0.0,0.0,0.0,0.0,0.67074436,-2.7622531e-05,-1.6538992e-05,0.0,-0.03277238,-0.028659878,0.1283179,-0.0009940523,-0.0055634505,-0.0033311164,0.0,-0.29530564,-0.94549936,0.47171348,-1.7018801,0.10878013,0.0,0.1,0.41545624,0.63834226,0.34958345,0.21076238,inf,inf,inf,inf,0,1,0,1,1,0,1,0,2,0,0,1
19442692,0,0.0,0.0,0.0,0.0,0.6723718,-2.7622531e-05,-1.6538992e-05,0.0,-0.036358062,-0.030734764,0.12646136,-8.618948e-05,-0.0055634505,-0.0033311164,0.0,-0.48462233,0.118913166,-0.2823461,-1.7005085,0.10878013,0.0,0.1,0.384249,0.6265335,0.326424,0.20662351,inf,inf,inf,inf,0,1,0,1,1,0,1,0,2,0,0,1
19532014,0,0.0,0.0,0.0,0.0,0.67246044,-2.7622531e-05,-1.6538992e-05,0.0,-0.03518411,-0.03285706,0.12495025,-0.0008980152,-0.0055634505,-0.0033311164,0.0,1.5706965,0.55047774,-0.2016798,-1.6992006,0.10878013,0.0,0.1,0.40995774,0.631919,0.33935222,0.20681584,inf,inf,inf,inf,0,1,0,1,1,0,1,0,2,0,0,1
19641236,0,0.0,0.0,0.0,0.0,0.67453027,-2.7622531e-05,-1.6538992e-05,0.0,-0.034479,-0.032545377,0.12639026,0.0030811576,-0.0055634505,-0.0033311164,0.0,0.2081922,0.7230387,0.35283196,-1.6979328,0.10878013,0.0,0.1,0.37932977,0.63046116,0.31703407,0.20515405,inf,inf,inf,inf,0,1,0,1,1,0,1,0,2,0,0,1
19740715,0,0.0,0.0,0.0,0.0,0.6775825,-2.7622531e-05,-1.6538992e-05,0.0,-0.042030215,-0.04072673,0.12530592,0.005004353,-0.0055634505,-0.0033311164,0.0,0.4314325,0.8647022,-0.33427706,-1.6972574,0.10878013,0.0,0.1,0.40710053,0.6273375,0.33073288,0.20328131,inf,inf,inf,inf,0,1,0,1,1,0,1,0,2,0,0,1
19834856,0,0.0,0.0,0.0,0.0,0.68015033,-2.7622531e-05,-1.6538992e-05,0.0,-0.0435827,-0.046509918,0.13043861,0.011674923,-0.0055634505,-0.0033311164,0.0,-0.3635912,-0.9069696,-0.24582429,-1.6960552,0.10878013,0.0,0.1,0.3723991,0.62254655,0.3071721,0.20113823,inf,inf,inf,inf,0,1,0,1,1,0,1,0,2,0,0,1
19944118,0,0.0,0.0,0.0,0.0,0.6820426,-2.7622531e-05,-1.6538992e-05,0.0,-0.045847915,-0.049550436,0.12912855,0.011577744,-0.0055634505,-0.0033311164,0.0,-0.8374225,-0.36869532,-0.10679136,-1.6952469,0.10878013,0.0,0.1,0.4019932,0.62120456,0.3222493,0.19971801,inf,inf,inf,inf,0,1,0,1,1,0,1,0,2,0,0,1
20033441,0,0.0,0.0,0.0,0.0,0.68381315,-2.7622531e-05,-1.6538992e-05,0.0,-0.045547333,-0.04361991,0.13161017,0.015222679,-0.0055634505,-0.0033311164,0.0,0.17457446,0.7253133,0.14100417,-1.6941614,0.10878013,0.0,0.1,0.36797994,0.6165955,0.29939127,0.19765742,inf,inf,inf,inf,0,1,0,1,1,0,1,0,2,0,0,1
20142663,0,0.0,0.0,0.0,0.0,0.6865081,-2.7622531e-05,-1.6538992e-05,0.0,-0.041105747,-0.046013854,0.13154025,0.016743947,-0.0055634505,-0.0033311164,0.0,1.0057975,0.19465634,-0.076601565,-1.6931058,0.10878013,0.0,0.1,0.3967513,0.61535716,0.313275,0.1962069,inf,inf,inf,inf,0,1,0,1,1,0,1,0,2,0,0,1
20232027,0,0.0,0.0,0.0,0.0,0.6878151,-2.7622531e-05,-1.6538992e-05,0.0,-0.045616493,-0.051533706,0.13305113,0.018444147,-0.0055634505,-0.0033311164,0.0,-0.5113599,-1.0127025,0.008695957,-1.6916704,0.10878013,0.0,0.1,0.36346716,0.6204335,0.2912197,0.19636345,inf,inf,inf,inf,0,1,0,1,1,0,1,0,2,0,0,1
20336285,0,0.0,0.0,0.0,0.0,0.68970144,-2.7622531e-05,-1.6538992e-05,0.0,-0.04398143,-0.052383192,0.13285324,0.0180871,-0.0055634505,-0.0033311164,0.0,0.16935155,-0.6181747,-0.32413322,-1.6903903,0.10878013,0.0,0.1,0.38877496,0.6174946,0.3033177,0.19466098,inf,inf,inf,inf,0,1,0,1,1,0,1,0,2,0,0,1
20435576,0,0.0,0.0,0.0,0.0,0.6904651,-2.7622531e-05,-1.6538992e-05,0.0,-0.045617267,-0.050978445,0.13448004,0.018981861,-0.0055634505,-0.0033311164,0.0,0.24761221,-0.60296774,-0.037052862,-1.6898749,0.10878013,0.0,0.1,0.35951042,0.6145872,0.28385314,0.19296034,inf,inf,inf,inf,0,1,0,1,1,0,1,0,2,0,0,1
20535014,0,0.0,0.0,0.0,0.0,0.68921405,-2.7622531e-05,-1.6538992e-05,0.0,-0.045972615,-0.050668843,0.13499518,0.017093668,-0.0055634505,-0.0033311164,0.0,0.3554853,0.12502079,0.12102503,-1.6897246,0.10878013,0.0,0.1,0.384161,0.6118266,0.2960432,0.19145279,inf,inf,inf,inf,0,1,0,1,1,0,1,0,2,0,0,1
20644093,0,0.0,0.0,0.0,0.0,0.68551826,-2.7622531e-05,-1.6538992e-05,0.0,-0.045311708,-0.051482257,0.12996423,0.0075050173,-0.0055634505,-0.0033311164,0.0,0.557425,0.38676187,-0.8321282,-1.6883315,0.10878013,0.0,0.1,0.3577914,0.6106367,0.2782792,0.19008015,inf,inf,inf,inf,0,1,0,1,1,0,1,0,2,0,0,1
20733454,0,0.0,0.0,0.0,0.0,0.6822221,-2.7622531e-05,-1.6538992e-05,0.0,-0.04723995,-0.055493236,0.13321829,0.007241863,-0.0055634505,-0.0033311164,0.0,0.19457754,0.2487075,0.37864995,-1.68756,0.10878013,0.0,0.1,0.37944,0.60630405,0.2883561,0.18825288,inf,inf,inf,inf,0,1,0,1,1,0,1,0,2,0,0,1
20842683,0,0.0,0.0,0.0,0.0,0.6808825,-2.7622531e-05,-1.6538992e-05,0.0,-0.05025331,-0.053974602,0.13346326,0.0062454552,-0.0055634505,-0.0033311164,0.0,-0.7385881,0.127505,0.1878767,-1.6873649,0.10878013,0.0,0.1,0.3535958,0.6051077,0.27125332,0.18691719,inf,inf,inf,inf,0,1,0,1,1,0,1,0,2,0,0,1
20932039,0,0.0,0.0,0.0,0.0,0.6805971,-2.7622531e-05,-1.6538992e-05,0.0,-0.045885667,-0.05523615,0.1307522,0.0033880293,-0.0055634505,-0.0033311164,0.0,1.0459428,0.018876337,-0.49040404,-1.6863527,0.10878013,0.0,0.1,0.37464607,0.6100227,0.28091428,0.1871186,inf,inf,inf,inf,0,1,0,1,1,0,1,0,2,0,0,1
21041261,0,0.0,0.0,0.0,0.0,0.6815923,-2.7622531e-05,-1.6538992e-05,0.0,-0.046454612,-0.05324273,0.13177375,0.005468569,-0.0055634505,-0.0033311164,0.0,-0.2999107,-0.28722498,0.1500643,-1.6855264,0.10878013,0.0,0.1,0.34938124,0.6088141,0.2644802,0.18581219,inf,inf,inf,inf,0,1,0,1,1,0,1,0,2,0,0,1
21140553,0,0.0,0.0,0.0,0.0,0.6826177,-2.7622531e-05,-1.6538992e-05,0.0,-0.04779452,-0.052242514,0.13268036,0.007248876,-0.0055634505,-0.0033311164,0.0,0.006097699,0.29908276,-0.23177701,-1.6865617,0.10878013,0.0,0.1,0.37219208,0.60611475,0.27488136,0.18431103,inf,inf,inf,inf,0,1,0,1,1,0,1,0,2,0,0,1
21239846,0,0.0,0.0,0.0,0.0,0.6859618,-2.7622531e-05,-1.6538992e-05,0.0,-0.04765564,-0.052453708,0.13642779,0.013924228,-0.0055634505,-0.0033311164,0.0,-0.17507051,0.4340469,0.1556067,-1.6876367,0.10878013,0.0,0.1,0.39630827,0.6034247,0.28549618,0.18283278,inf,inf,inf,inf,0,1,0,1,1,0,1,0,2,0,0,1
21339240,0,0.0,0.0,0.0,0.0,0.68966603,-2.7622531e-05,-1.6538992e-05,0.0,-0.04844377,-0.051763307,0.13791524,0.018175745,-0.0055634505,-0.0033311164,0.0,-1.0473843,0.18444929,0.6600077,-1.6882619,0.10878013,0.0,0.1,0.3673871,0.6007704,0.26811683,0.18136577,inf,inf,inf,inf,0,1,0,1,1,0,1,0,2,0,0,1
21433467,0,0.0,0.0,0.0,0.0,0.6934967,-2.7622531e-05,-1.6538992e-05,0.0,-0.0459208,-0.054209746,0.13542338,0.01761434,-0.0055634505,-0.0033311164,0.0,0.35492763,0.2964812,0.13977367,-1.6882309,0.10878013,0.0,0.1,0.38843814,0.59664434,0.27728742,0.1796975,inf,inf,inf,inf,0,1,0,1,1,0,1,0,2,0,0,1
21542689,0,0.0,0.0,0.0,0.0,0.6966403,-2.7622531e-05,-1.6538992e-05,0.0,-0.046876337,-0.050266683,0.1396851,0.023242379,-0.0055634505,-0.0033311164,0.0,-0.5440023,0.14011636,0.6266455,-1.6892974,0.10878013,0.0,0.1,0.36321968,0.59551406,0.26250488,0.1785951,inf,inf,inf,inf,0,1,0,1,1,0,1,0,2,0,0,1
21632052,0,0.0,0.0,0.0,0.0,0.69813824,-2.7622531e-05,-1.6538992e-05,0.0,-0.048909962,-0.053718776,0.13725978,0.020891994,-0.0055634505,-0.0033311164,0.0,-0.21612899,0.058473777,-0.45209002,-1.6909884,0.10878013,0.0,0.1,0.38377774,0.6002031,0.27140117,0.17880672,inf,inf,inf,inf,0,1,0,1,1,0,1,0,2,0,0,1
21741274,0,0.0,0.0,0.0,0.0,0.70215386,-2.7622531e-05,-1.6538992e-05,0.0,-0.049178455,-0.054622784,0.14012061,0.025807034,-0.0055634505,-0.0033311164,0.0,-0.49964008,-0.57187635,0.16078398,-1.6915613,0.10878013,0.0,0.1,0.35908476,0.59911025,0.2566262,0.17763625,inf,inf,inf,inf,0,1,0,1,1,0,1,0,2,0,0,1
21840619,0,0.0,0.0,0.0,0.0,0.70741856,-2.7622531e-05,-1.6538992e-05,0.0,-0.049453184,-0.05259365,0.14290616,0.031603143,-0.0055634505,-0.0033311164,0.0,-1.4465503,-0.98903674,0.23548003,-1.6924917,0.10878013,0.0,0.1,0.38141826,0.5965444,0.2662112,0.17627315,inf,inf,inf,inf,0,1,0,1,1,0,1,0,2,0,0,1
21934895,0,0.0,0.0,0.0,0.0,0.7110812,-2.7622531e-05,-1.6538992e-05,0.0,-0.045248337,-0.04573017,0.14105651,0.030299783,-0.0055634505,-0.0033311164,0.0,-0.2941432,0.7647005,0.47728488,-1.6929778,0.10878013,0.0,0.1,0.35284,0.59255725,0.25007436,0.17470355,inf,inf,inf,inf,0,1,0,1,1,0,1,0,2,0,0,1
22044117,0,0.0,0.0,0.0,0.0,0.7146565,-2.7622531e-05,-1.6538992e-05,0.0,-0.043452542,-0.04999517,0.14585671,0.03550349,-0.0055634505,-0.0033311164,0.0,0.04472173,-1.0605779,0.5073349,-1.6935189,0.10878013,0.0,0.1,0.3767385,0.5915084,0.2602986,0.17360397,inf,inf,inf,inf,0,1,0,1,1,0,1,0,2,0,0,1
22133519,0,0.0,0.0,0.0,0.0,0.7174839,-2.7622531e-05,-1.6538992e-05,0.0,-0.04870776,-0.053360432,0.14257492,0.0325306,-0.0055634505,-0.0033311164,0.0,-0.94070673,-0.09157466,0.0069437902,-1.6947132,0.10878013,0.0,0.1,0.34930232,0.58760774,0.24547641,0.17217797,inf,inf,inf,inf,0,1,0,1,1,0,1,0,2,0,0,1
22242706,0,0.0,0.0,0.0,0.0,0.71778715,-2.7622531e-05,-1.6538992e-05,0.0,-0.047980264,-0.04823771,0.144648,0.031809792,-0.0055634505,-0.0033311164,0.0,0.48740137,0.5756587,0.27147502,-1.6952904,0.10878013,0.0,0.1,0.3727017,0.58663636,0.25539795,0.17112213,inf,inf,inf,inf,0,1,0,1,1,0,1,0,2,0,0,1
22332068,0,0.0,0.0,0.0,0.0,0.71901333,-2.7622531e-05,-1.6538992e-05,0.0,-0.04300102,-0.046241384,0.14442913,0.030454477,-0.0055634505,-0.0033311164,0.0,-0.114752136,-0.48454574,0.16422872,-1.69578,0.10878013,0.0,0.1,0.34574488,0.5911088,0.24062754,0.17132823,inf,inf,inf,inf,0,1,0,1,1,0,1,0,2,0,0,1
22431535,0,0.0,0.0,0.0,0.0,0.719738,-2.7622531e-05,-1.6538992e-05,0.0,-0.04425599,-0.04446015,0.14477547,0.028937574,-0.0055634505,-0.0033311164,0.0,-0.05332685,0.43192768,0.22463802,-1.6971223,0.10878013,0.0,0.1,0.36648694,0.5886649,0.24936473,0.17006484,inf,inf,inf,inf,0,1,0,1,1,0,1,0,2,0,0,1
22535615,0,0.0,0.0,0.0,0.0,0.7219019,-2.7622531e-05,-1.6538992e-05,0.0,-0.045685872,-0.044650655,0.14712788,0.030292703,-0.0055634505,-0.0033311164,0.0,-0.09475882,0.35311583,0.5449135,-1.6978363,0.10878013,0.0,0.1,0.34261435,0.5862587,0.2362121,0.16882446,inf,inf,inf,inf,0,1,0,1,1,0,1,0,2,0,0,1
22634910,0,0.0,0.0,0.0,0.0,0.72367376,-2.7622531e-05,-1.6538992e-05,0.0,-0.045895647,-0.0435474,0.14616731,0.028739134,-0.0055634505,-0.0033311164,0.0,-0.2344529,0.99736035,0.23655689,-1.6985091,0.10878013,0.0,0.1,0.3629386,0.5838696,0.24514315,0.16769925,inf,inf,inf,inf,0,1,0,1,1,0,1,0,2,0,0,1
22744130,0,0.0,0.0,0.0,0.0,0.7241268,-2.7622531e-05,-1.6538992e-05,0.0,-0.04380217,-0.044765994,0.14816345,0.028785465,-0.0055634505,-0.0033311164,0.0,0.24024342,-0.24594784,-0.11061613,-1.698539,0.10878013,0.0,0.1,0.34137458,0.5829061,0.23315446,0.16670395,inf,inf,inf,inf,0,1,0,1,1,0,1,0,2,0,0,1
22833493,0,0.0,0.0,0.0,0.0,0.7242985,-2.7622531e-05,-1.6538992e-05,0.0,-0.04240255,-0.045119815,0.1451648,0.024119504,-0.0055634505,-0.0033311164,0.0,-0.444854,-0.5851938,0.50280005,-1.6986296,0.10878013,0.0,0.1,0.35935798,0.57922554,0.24059887,0.16531938,inf,inf,inf,inf,0,1,0,1,1,0,1,0,2,0,0,1
22942769,0,0.0,0.0,0.0,0.0,0.7253166,-2.7622531e-05,-1.6538992e-05,0.0,-0.041605983,-0.044387612,0.14770009,0.025527716,-0.0055634505,-0.0033311164,0.0,0.30851132,0.04082342,0.39872494,-1.6987697,0.10878013,0.0,0.1,0.3381169,0.5782892,0.22895534,0.16435999,inf,inf,inf,inf,0,1,0,1,1,0,1,0,2,0,0,1
23037043,0,0.0,0.0,0.0,0.0,0.7280244,-2.7622531e-05,-1.6538992e-05,0.0,-0.03966587,-0.040950783,0.14720151,0.025171338,-0.0055634505,-0.0033311164,0.0,1.0929139,0.50342,-0.54981804,-1.6997277,0.10878013,0.0,0.1,0.35573146,0.5826222,0.23624527,0.16457455,inf,inf,inf,inf,0,1,0,1,1,0,1,0,2,0,0,1
23136339,0,0.0,0.0,0.0,0.0,0.73192567,-2.7622531e-05,-1.6538992e-05,0.0,-0.044805028,-0.040256787,0.15120763,0.030868817,-0.0055634505,-0.0033311164,0.0,0.1357832,0.42524093,0.3084851,-1.7010677,0.10878013,0.0,0.1,0.33338287,0.58031416,0.22440453,0.16343074,inf,inf,inf,inf,0,1,0,1,1,0,1,0,2,0,0,1
23235788,0,0.0,0.0,0.0,0.0,0.73553294,-2.7622531e-05,-1.6538992e-05,0.0,-0.041441176,-0.037497655,0.14883585,0.029839834,-0.0055634505,-0.0033311164,0.0,0.58405256,1.4615881,-0.15192431,-1.7015997,0.10878013,0.0,0.1,0.35256127,0.5780231,0.2326822,0.16238922,inf,inf,inf,inf,0,1,0,1,1,0,1,0,2,0,0,1
23334921,0,0.0,0.0,0.0,0.0,0.73765653,-2.7622531e-05,-1.6538992e-05,0.0,-0.03390856,-0.029434312,0.14597966,0.026612887,-0.0055634505,-0.0033311164,0.0,3.0034754,2.196029,0.40766144,-1.7017096,0.10878013,0.0,0.1,0.3726042,0.57581085,0.24126843,0.16129188,inf,inf,inf,inf,0,1,0,1,1,0,1,0,2,0,0,1
23444174,0,0.0,0.0,0.0,0.0,0.74140793,-2.7622531e-05,-1.6538992e-05,0.0,-0.049397137,-0.0409708,0.1458611,0.027341232,-0.0055634505,-0.0033311164,0.0,-0.6437425,-1.6681055,0.5705263,-1.7016797,0.10878013,0.0,0.1,0.39593542,0.5749302,0.25424728,0.1603951,inf,inf,inf,inf,0,1,0,1,1,0,1,0,2,0,0,1
23533506,0,0.0,0.0,0.0,0.0,0.74516076,-2.7622531e-05,-1.6538992e-05,0.0,-0.04967892,-0.04489775,0.1510997,0.033768233,-0.0055634505,-0.0033311164,0.0,0.62409604,-1.2515599,0.46611077,-1.7030932,0.10878013,0.0,0.1,0.4157955,0.5714316,0.26728258,0.15912735,inf,inf,inf,inf,0,1,0,1,1,0,1,0,2,0,0,1
23642728,0,0.0,0.0,0.0,0.0,0.74848,-2.7622531e-05,-1.6538992e-05,0.0,-0.057255402,-0.039732717,0.15057752,0.033216003,-0.0055634505,-0.0033311164,0.0,-1.5480942,1.3853048,-0.90113974,-1.7037052,0.10878013,0.0,0.1,0.44154915,0.5705726,0.2861827,0.1583004,inf,inf,inf,inf,0,1,0,1,1,0,1,0,2,0,0,1
23732092,0,0.0,0.0,0.0,0.0,0.7519054,-2.7622531e-05,-1.6538992e-05,0.0,-0.054393295,-0.045768395,0.16025037,0.04325378,-0.0055634505,-0.0033311164,0.0,0.2459008,-2.3008096,1.864069,-1.7035985,0.10878013,0.0,0.1,0.46352884,0.5671364,0.3032337,0.15708612,inf,inf,inf,inf,0,1,0,1,1,0,1,0,2,0,0,1
23841340,0,0.0,0.0,0.0,0.0,0.7521349,-2.7622531e-05,-1.6538992e-05,0.0,-0.050128046,-0.04597757,0.15869758,0.038007196,-0.0055634505,-0.0033311164,0.0,0.70736,-1.45725,0.42241645,-1.7036859,0.10878013,0.0,0.1,0.49226734,0.5663004,0.32605675,0.15625784,inf,inf,inf,inf,0,1,0,1,1,0,1,0,2,0,0,1
23940607,0,0.0,0.0,0.0,0.0,0.7508765,-2.7622531e-05,-1.6538992e-05,0.0,-0.056923486,-0.05072268,0.16314091,0.038185265,-0.0055634505,-0.0033311164,0.0,-0.7384976,-0.35777295,0.8921001,-1.7046015,0.10878013,0.0,0.1,0.51972336,0.57168055,0.34812135,0.15667653,inf,inf,inf,inf,0,1,0,1,1,0,1,0,2,0,0,1
24040049,0,0.0,0.0,0.0,0.0,0.7442758,-2.7622531e-05,-1.6538992e-05,0.0,-0.062235005,-0.05016545,0.15540448,0.021620361,-0.0055634505,-0.0033311164,0.0,0.05084629,-1.3154986,0.09007097,-1.7055081,0.10878013,0.0,0.1,0.549286,0.5695052,0.3714498,0.1556759,inf,inf,inf,inf,0,1,0,1,1,0,1,0,2,0,0,1
24139197,0,0.0,0.0,0.0,0.0,0.7428179,-2.7622531e-05,-1.6538992e-05,0.0,-0.061849803,-0.035821646,0.14569224,0.009134111,-0.0055634505,-0.0033311164,0.0,0.07623387,1.9450319,-2.4009552,-1.7071627,0.10878013,0.0,0.1,0.5807898,0.5673702,0.39569545,0.15469034,inf,inf,inf,inf,0,1,0,1,1,0,1,0,2,0,0,1
24238486,0,0.0,0.0,0.0,0.0,0.74387574,-2.7622531e-05,-1.6538992e-05,0.0,-0.07147867,-0.04828741,0.1631348,0.02645332,-0.0055634505,-0.0033311164,0.0,-1.8760846,-1.507212,2.822548,-1.7064518,0.10878013,0.0,0.1,0.61387074,0.565241,0.42059413,0.15374792,inf,inf,inf,inf,0,1,0,1,1,0,1,0,2,0,0,1
24342757,0,0.0,0.0,0.0,0.0,0.74392825,-2.7622531e-05,-1.6538992e-05,0.0,-0.067238115,-0.037413843,0.15227512,0.013709122,-0.0055634505,-0.0033311164,0.0,-0.07746694,2.2257013,-1.4734273,-1.707215,0.10878013,0.0,0.1,0.6496951,0.56315076,0.44637004,0.15282322,inf,inf,inf,inf,0,1,0,1,1,0,1,0,2,0,0,1
24432106,0,0.0,0.0,0.0,0.0,0.74438024,-2.7622531e-05,-1.6538992e-05,0.0,-0.07755131,-0.042344704,0.15301982,0.013967177,-0.0055634505,-0.0033311164,0.0,0.39771253,0.85188174,-0.26741117,-1.707666,0.10878013,0.0,0.1,0.68324625,0.56715244,0.46963006,0.15305938,inf,inf,inf,inf,0,1,0,1,1,0,1,0,2,0,0,1
24541358,0,0.0,0.0,0.0,0.0,0.7459003,-2.7622531e-05,-1.6538992e-05,0.0,-0.07096846,-0.054626994,0.16148312,0.023057949,-0.0055634505,-0.0033311164,0.0,1.2028899,-0.35464954,1.7979795,-1.7072614,0.10878013,0.0,0.1,0.72787416,0.56629294,0.4993774,0.1524016,inf,inf,inf,inf,0,1,0,1,1,0,1,0,2,0,0,1
24640619,0,0.0,0.0,0.0,0.0,0.74650234,-2.7622531e-05,-1.6538992e-05,0.0,-0.07633169,-0.038200922,0.15699202,0.018334273,-0.0055634505,-0.0033311164,0.0,-1.0432919,2.488234,-1.5773823,-1.7081064,0.10878013,0.0,0.1,0.7701785,0.5641473,0.5261025,0.15149674,inf,inf,inf,inf,0,1,0,1,1,0,1,0,2,0,0,1
24739913,0,0.0,0.0,0.0,0.0,0.74628913,-2.7622531e-05,-1.6538992e-05,0.0,-0.08020482,-0.037960112,0.15526627,0.015419947,-0.0055634505,-0.0033311164,0.0,-0.22189948,2.7220495,-1.5587307,-1.709033,0.10878013,0.0,0.1,0.81618905,0.56204367,0.5535706,0.15058494,inf,inf,inf,inf,0,1,0,1,1,0,1,0,2,0,0,1
24839313,0,0.0,0.0,0.0,0.0,0.7447008,-2.7622531e-05,-1.6538992e-05,0.0,-0.08394879,-0.054495454,0.16258973,0.020125123,-0.0055634505,-0.0033311164,0.0,1.3842705,0.5319927,0.64899546,-1.7084287,0.10878013,0.0,0.1,0.8635182,0.5599492,0.58067846,0.14970051,inf,inf,inf,inf,0,1,0,1,1,0,1,0,2,0,0,1
24933533,0,0.0,0.0,0.0,0.0,0.74398416,-2.7622531e-05,-1.6538992e-05,0.0,-0.09514602,-0.051239807,0.16055465,0.015944472,-0.0055634505,-0.0033311164,0.0,-0.5196354,-2.0684125,2.4995475,-1.7091974,0.10878013,0.0,0.1,0.90983534,0.556644,0.60593855,0.14865518,inf,inf,inf,inf,0,1,0,1,1,0,1,0,2,0,0,1
25042756,0,0.0,0.0,0.0,0.0,0.7446107,-2.7622531e-05,-1.6538992e-05,0.0,-0.093662426,-0.057437517,0.16479944,0.020116886,-0.0055634505,-0.0033311164,0.0,-0.08654584,-3.386747,2.5171962,-1.7091368,0.10878013,0.0,0.1,0.96758556,0.55582154,0.63634664,0.14805542,inf,inf,inf,inf,0,1,0,1,1,0,1,0,2,0,0,1
25137083,0,0.0,0.0,0.0,0.0,0.74745005,-2.7622531e-05,-1.6538992e-05,0.0,-0.09490263,-0.05030319,0.16010986,0.017058337,-0.0055634505,-0.0033311164,0.0,-0.20290814,-1.2272254,0.907632,-1.7098408,0.10878013,0.0,0.1,1.0191637,0.5596694,0.661994,0.14831196,inf,inf,inf,inf,0,1,0,1,1,0,1,0,2,0,0,1
25236401,0,0.0,0.0,0.0,0.0,0.7518826,-2.7622531e-05,-1.6538992e-05,0.0,-0.08942086,-0.04863797,0.15923427,0.019790808,-0.0055634505,-0.0033311164,0.0,0.58934456,1.7483548,-1.1198536,-1.7108244,0.10878013,0.0,0.1,1.0764259,0.5576409,0.6892707,0.1474981,inf,inf,inf,inf,0,1,0,1,1,0,1,0,2,0,0,1
25335669,0,0.0,0.0,0.0,0.0,0.7555095,-2.7622531e-05,-1.6538992e-05,0.0,-0.094881445,-0.0476653,0.16216204,0.024892583,-0.0055634505,-0.0033311164,0.0,-1.4503193,0.37016085,0.4812849,-1.7102193,0.10878013,0.0,0.1,1.1395203,0.5556534,0.7183778,0.14675905,inf,inf,inf,inf,0,1,0,1,1,0,1,0,2,0,0,1
25434959,0,0.0,0.0,0.0,0.0,0.7557779,-2.7622531e-05,-1.6538992e-05,0.0,-0.10211601,-0.044106122,0.15697618,0.018539388,-0.0055634505,-0.0033311164,0.0,-0.5126429,2.3282228,-1.4818445,-1.7107565,0.10878013,0.0,0.1,1.2016095,0.5537065,0.74536526,0.14598586,inf,inf,inf,inf,0,1,0,1,1,0,1,0,2,0,0,1
25544184,0,0.0,0.0,0.0,0.0,0.7550085,-2.7622531e-05,-1.6538992e-05,0.0,-0.0996793,-0.05751834,0.16225918,0.021550147,-0.0055634505,-0.0033311164,0.0,0.3333688,-0.039944865,-0.6959036,-1.7107488,0.10878013,0.0,0.1,1.2777795,0.552954,0.7774018,0.14537391,inf,inf,inf,inf,0,1,0,1,1,0,1,0,2,0,0,1
25633595,0,0.0,0.0,0.0,0.0,0.7546217,-2.7622531e-05,-1.6538992e-05,0.0,-0.110018834,-0.049122833,0.15592657,0.013691992,-0.0055634505,-0.0033311164,0.0,-0.3776604,1.8331673,-1.1740915,-1.7110195,0.10878013,0.0,0.1,1.3371615,0.5498634,0.8008272,0.14444463,inf,inf,inf,inf,0,1,0,1,1,0,1,0,2,0,0,1
25742769,0,0.0,0.0,0.0,0.0,0.75507706,-2.7622531e-05,-1.6538992e-05,0.0,-0.10463146,-0.053628393,0.15891738,0.015968256,-0.0055634505,-0.0033311164,0.0,0.4109876,0.16867045,-0.80519027,-1.7106582,0.10878013,0.0,0.1,1.4198786,0.5491391,0.83302635,0.14384541,inf,inf,inf,inf,0,1,0,1,1,0,1,0,2,0,0,1
25832142,0,0.0,0.0,0.0,0.0,0.75728184,-2.7622531e-05,-1.6538992e-05,0.0,-0.11283264,-0.050722215,0.15926132,0.017318716,-0.0055634505,-0.0033311164,0.0,1.0174257,2.95288,-1.6889127,-1.7117614,0.10878013,0.0,0.1,1.4824404,0.5528777,0.85562414,0.14414108,inf,inf,inf,inf,0,1,0,1,1,0,1,0,2,0,0,1
25931610,0,0.0,0.0,0.0,0.0,0.76014274,-2.7622531e-05,-1.6538992e-05,0.0,-0.12339185,-0.067671195,0.16606341,0.02553554,-0.0055634505,-0.0033311164,0.0,-0.5929997,-2.1309512,1.9138039,-1.7108928,0.10878013,0.0,0.1,1.5633553,0.550955,0.8849216,0.14336504,inf,inf,inf,inf,0,1,0,1,1,0,1,0,2,0,0,1
26035691,0,0.0,0.0,0.0,0.0,0.76162773,-2.7622531e-05,-1.6538992e-05,0.0,-0.13430598,-0.058028452,0.1653693,0.023901578,-0.0055634505,-0.0033311164,0.0,-2.92698,-1.5382875,1.9052153,-1.7116247,0.10878013,0.0,0.1,1.6366932,0.5490686,0.90933245,0.14266716,inf,inf,inf,inf,0,1,0,1,1,0,1,0,2,0,0,1
26135012,0,0.0,0.0,0.0,0.0,0.76201123,-2.7622531e-05,-1.6538992e-05,0.0,-0.13365278,-0.05192288,0.15707563,0.014340131,-0.0055634505,-0.0033311164,0.0,-0.24937254,2.503924,-2.101527,-1.7114675,0.10878013,0.0,0.1,1.7233648,0.5471919,0.9390871,0.1420217,inf,inf,inf,inf,0,1,0,1,1,0,1,0,2,0,0,1
26234269,0,0.0,0.0,0.0,0.0,0.76161283,-2.7622531e-05,-1.6538992e-05,0.0,-0.13475484,-0.05910034,0.16160405,0.017394641,-0.0055634505,-0.0033311164,0.0,0.25016063,1.3095093,-0.38400456,-1.7115942,0.10878013,0.0,0.1,1.7987847,0.5453816,0.9617384,0.14130862,inf,inf,inf,inf,0,1,0,1,1,0,1,0,2,0,0,1
26333567,0,0.0,0.0,0.0,0.0,0.7618571,-2.7622531e-05,-1.6538992e-05,0.0,-0.13222389,-0.052826267,0.1627828,0.017650561,-0.0055634505,-0.0033311164,0.0,1.1805345,0.827544,-0.408965,-1.7107784,0.10878013,0.0,0.1,1.8910528,0.54357773,0.9912479,0.14063168,inf,inf,inf,inf,0,1,0,1,1,0,1,0,2,0,0,1
26442839,0,0.0,0.0,0.0,0.0,0.76163536,-2.7622531e-05,-1.6538992e-05,0.0,-0.14928406,-0.06051431,0.16491443,0.018290298,-0.0055634505,-0.0033311164,0.0,-3.0004387,-0.20827256,0.6283665,-1.710863,0.10878013,0.0,0.1,1.976954,0.54291505,1.0148872,0.14010476,inf,inf,inf,inf,0,1,0,1,1,0,1,0,2,0,0,1
26532147,0,0.0,0.0,0.0,0.0,0.76214653,-2.7622531e-05,-1.6538992e-05,0.0,-0.1457727,-0.06323438,0.17040962,0.023466688,-0.0055634505,-0.0033311164,0.0,-0.3063052,-2.5779893,1.5443306,-1.7103564,0.10878013,0.0,0.1,2.06494,0.54658735,1.0413485,0.14039534,inf,inf,inf,inf,0,1,0,1,1,0,1,0,2,0,0,1
26641372,0,0.0,0.0,0.0,0.0,0.76086783,-2.7622531e-05,-1.6538992e-05,0.0,-0.14326447,-0.050767343,0.16207862,0.0128503945,-0.0055634505,-0.0033311164,0.0,0.40651703,-1.6915934,-0.011001077,-1.7108629,0.10878013,0.0,0.1,2.1508286,0.5394035,1.0624981,0.13877977,inf,inf,inf,inf,0,1,0,1,1,0,1,0,2,0,0,1
26740865,0,0.0,0.0,0.0,0.0,0.7599695,-2.7622531e-05,-1.6538992e-05,0.0,-0.15301904,-0.06156234,0.16927163,0.018404273,-0.0055634505,-0.0033311164,0.0,-0.58351433,-3.045278,1.883584,-1.7097317,0.10878013,0.0,0.1,2.2537947,0.5441571,1.0918021,0.13922396,inf,inf,inf,inf,0,1,0,1,1,0,1,0,2,0,0,1
26834990,0,0.0,0.0,0.0,0.0,0.7588946,-2.7622531e-05,-1.6538992e-05,0.0,-0.14992537,-0.046223335,0.16317488,0.009836876,-0.0055634505,-0.0033311164,0.0,0.99491686,1.1411424,-1.478966,-1.71001,0.10878013,0.0,0.1,2.317352,0.5412675,1.1043209,0.13841984,inf,inf,inf,inf,0,1,0,1,1,0,1,0,2,0,0,1
26944212,0,0.0,0.0,0.0,0.0,0.7540304,-2.7622531e-05,-1.6538992e-05,0.0,-0.15355769,-0.049500182,0.16114905,0.0027568,-0.0055634505,-0.0033311164,0.0,1.4080855,-0.952878,0.7174796,-1.7086921,0.10878013,0.0,0.1,2.4356403,0.54063445,1.1366252,0.13800552,inf,inf,inf,inf,0,1,0,1,1,0,1,0,2,0,0,1
27033579,0,0.0,0.0,0.0,0.0,0.75148726,-2.7622531e-05,-1.6538992e-05,0.0,-0.15527989,-0.03847723,0.16149098,0.0012924494,-0.0055634505,-0.0033311164,0.0,-1.0612283,-0.190443,-0.030231478,-1.7109913,0.10878013,0.0,0.1,2.5352023,0.53783107,1.1628596,0.13722463,inf,inf,inf,inf,0,1,0,1,1,0,1,0,2,0,0,1
27142798,0,0.0,0.0,0.0,0.0,0.7497245,-2.7622531e-05,-1.6538992e-05,0.0,-0.15615712,-0.05002091,0.16265462,0.0016374444,-0.0055634505,-0.0033311164,0.0,-0.21644495,-0.26594976,0.36188126,-1.7107179,0.10878013,0.0,0.1,2.618165,0.5372722,1.1774638,0.13674344,inf,inf,inf,inf,0,1,0,1,1,0,1,0,2,0,0,1
27232204,0,0.0,0.0,0.0,0.0,0.75035936,-2.7622531e-05,-1.6538992e-05,0.0,-0.16478693,-0.05153921,0.15977558,-0.00017661139,-0.0055634505,-0.0033311164,0.0,0.13224766,-0.38437048,-0.55295986,-1.7109193,0.10878013,0.0,0.1,2.7215927,0.53451496,1.2034823,0.13598774,inf,inf,inf,inf,0,1,0,1,1,0,1,0,2,0,0,1
27341383,0,0.0,0.0,0.0,0.0,0.75032914,-2.7622531e-05,-1.6538992e-05,0.0,-0.16407907,-0.03987696,0.16145794,0.002141008,-0.0055634505,-0.0033311164,0.0,-1.2006935,1.1141784,-0.73801845,-1.7138726,0.10878013,0.0,0.1,2.7991042,0.533948,1.2142057,0.13549715,inf,inf,inf,inf,0,1,0,1,1,0,1,0,2,0,0,1
27440677,0,0.0,0.0,0.0,0.0,0.75083035,-2.7622531e-05,-1.6538992e-05,0.0,-0.16743314,-0.04105933,0.16901205,0.010475848,-0.0055634505,-0.0033311164,0.0,1.1839502,0.92146695,-0.032697156,-1.7127832,0.10878013,0.0,0.1,2.9180434,0.5385869,1.2428322,0.13594647,inf,inf,inf,inf,0,1,0,1,1,0,1,0,2,0,0,1
27540121,0,0.0,0.0,0.0,0.0,0.7501972,-2.7622531e-05,-1.6538992e-05,0.0,-0.16413094,-0.032898474,0.16946384,0.010424932,-0.0055634505,-0.0033311164,0.0,-0.72099435,0.89432496,-0.38439593,-1.7128446,0.10878013,0.0,0.1,2.9762273,0.5369198,1.2464095,0.13531491,inf,inf,inf,inf,0,1,0,1,1,0,1,0,2,0,0,1
27639262,0,0.0,0.0,0.0,0.0,0.7512192,-2.7622531e-05,-1.6538992e-05,0.0,-0.17500272,-0.037864972,0.16868103,0.010717287,-0.0055634505,-0.0033311164,0.0,-1.835566,-0.008406383,1.0136676,-1.7140735,0.10878013,0.0,0.1,3.0985131,0.53526825,1.2745562,0.13471052,inf,inf,inf,inf,0,1,0,1,1,0,1,0,2,0,0,1
27738554,0,0.0,0.0,0.0,0.0,0.7539984,-2.7622531e-05,-1.6538992e-05,0.0,-0.17376052,-0.037484206,0.15983433,0.004556469,-0.0055634505,-0.0033311164,0.0,-2.2597504,-0.49157396,0.06534188,-1.7123032,0.10878013,0.0,0.1,3.1472945,0.53360486,1.2735925,0.13406922,inf,inf,inf,inf,0,1,0,1,1,0,1,0,2,0,0,1
27842812,0,0.0,0.0,0.0,0.0,0.75525874,-2.7622531e-05,-1.6538992e-05,0.0,-0.174179,-0.029109491,0.15975375,0.0046224934,-0.0055634505,-0.0033311164,0.0,-1.7136385,-1.7244579,-1.0594847,-1.7092555,0.10878013,0.0,0.1,3.2724218,0.5319858,1.3012887,0.13348372,inf,inf,inf,inf,0,1,0,1,1,0,1,0,2,0,0,1
27932176,0,0.0,0.0,0.0,0.0,0.7553512,-2.7622531e-05,-1.6538992e-05,0.0,-0.16859865,-0.024478558,0.16915353,0.013846927,-0.0055634505,-0.0033311164,0.0,-2.2577443,0.49835718,0.8435235,-1.7053207,0.10878013,0.0,0.1,3.2983544,0.53546613,1.293111,0.13371477,inf,inf,inf,inf,0,1,0,1,1,0,1,0,2,0,0,1
28041439,0,0.0,0.0,0.0,0.0,0.7531121,-2.7622531e-05,-1.6538992e-05,0.0,-0.16063054,-0.03581966,0.17065078,0.012534155,-0.0055634505,-0.0033311164,0.0,-0.005289263,-2.1484032,1.6361513,-1.703924,0.10878013,0.0,0.1,3.4383926,0.5287657,1.3232671,0.13236141,inf,inf,inf,inf,0,1,0,1,1,0,1,0,2,0,0,1
28135730,0,0.0,0.0,0.0,0.0,0.7536778,-2.7622531e-05,-1.6538992e-05,0.0,-0.164162,-0.026703792,0.16726749,0.008665021,-0.0055634505,-0.0033311164,0.0,2.4593866,1.1574641,1.7551101,-1.7012334,0.10878013,0.0,0.1,3.4519901,0.53222555,1.3103956,0.13257787,inf,inf,inf,inf,0,1,0,1,1,0,1,0,2,0,0,1
28235019,0,0.0,0.0,0.0,0.0,0.7541401,-2.7622531e-05,-1.6538992e-05,0.0,-0.1616434,-0.014871313,0.16383067,0.0056491788,-0.0055634505,-0.0033311164,0.0,-0.48408163,-0.21598557,0.98172915,-1.6995467,0.10878013,0.0,0.1,3.5809667,0.5306453,1.3368767,0.13198695,inf,inf,inf,inf,0,1,0,1,1,0,1,0,2,0,0,1
28334413,0,0.0,0.0,0.0,0.0,0.7538135,-2.7622531e-05,-1.6538992e-05,0.0,-0.1542989,-0.00059714477,0.16571154,0.00765601,-0.0055634505,-0.0033311164,0.0,1.1604362,0.36433837,0.87216455,-1.696327,0.10878013,0.0,0.1,3.5951278,0.5290661,1.3225381,0.13145198,inf,inf,inf,inf,0,1,0,1,1,0,1,0,2,0,0,0
28433634,0,0.0,0.0,0.0,0.0,0.7540557,-2.7622531e-05,-1.6538992e-05,0.0,-0.16137736,0.016935881,0.16398406,0.0069062933,-0.0055634505,-0.0033311164,0.0,0.2684726,1.2212646,-1.0516994,-1.6915405,0.10878013,0.0,0.1,3.725387,0.52754164,1.3483862,0.13089973,inf,inf,inf,inf,0,1,0,1,1,0,1,0,2,0,0,0
28542826,0,0.0,0.0,0.0,0.0,0.755335,-2.7622531e-05,-1.6538992e-05,0.0,-0.15210555,0.0019009486,0.16878586,0.012569913,-0.0055634505,-0.0033311164,0.0,-3.4376218,0.9997525,-2.4047453,-1.6788571,0.10878013,0.0,0.1,3.7388241,0.52703255,1.3317714,0.13044323,inf,inf,inf,inf,0,1,0,1,1,0,1,0,2,0,0,0
28632194,0,0.0,0.0,0.0,0.0,0.7561765,-2.7622531e-05,-1.6538992e-05,0.0,-0.14243148,0.009072429,0.16905946,0.013048862,-0.0055634505,-0.0033311164,0.0,-0.20201097,0.8954212,-0.32926595,-1.6650969,0.10878013,0.0,0.1,3.856807,0.52448654,1.354363,0.12972641,inf,inf,inf,inf,0,1,0,1,1,0,1,0,2,0,0,0
28741412,0,0.0,0.0,0.0,0.0,0.7564385,-2.7622531e-05,-1.6538992e-05,0.0,-0.1419551,0.016926536,0.17933269,0.022575535,-0.0055634505,-0.0033311164,0.0,-1.0866202,-0.025458895,1.5481691,-1.6488123,0.10878013,0.0,0.1,3.856282,0.52398384,1.3332756,0.12921204,inf,inf,inf,inf,0,1,0,1,1,0,1,0,2,0,0,0
28840706,0,0.0,0.0,0.0,0.0,0.75395334,-2.7622531e-05,-1.6538992e-05,0.0,-0.13534576,0.020127786,0.1757183,0.015385866,-0.0055634505,-0.0033311164,0.0,3.3934982,-0.0055061225,0.4921118,-1.6332954,0.10878013,0.0,0.1,3.9876907,0.52249867,1.3576324,0.1286544,inf,inf,inf,inf,0,1,0,1,1,0,1,0,2,0,0,0
28935038,0,0.0,0.0,0.0,0.0,0.7524132,-2.7622531e-05,-1.6538992e-05,0.0,-0.1366136,0.023146212,0.17348236,0.010491358,-0.0055634505,-0.0033311164,0.0,-0.16928075,1.1419278,0.038017295,-1.6223423,0.10878013,0.0,0.1,3.94807,0.52583313,1.3280989,0.12885094,inf,inf,inf,inf,0,1,0,1,1,0,1,0,2,0,0,0
29034328,0,0.0,0.0,0.0,0.0,0.7526444,-2.7622531e-05,-1.6538992e-05,0.0,-0.15158977,0.020692786,0.17329031,0.01019134,-0.0055634505,-0.0033311164,0.0,0.25905836,-1.0527391,-0.6574599,-1.6168146,0.10878013,0.0,0.1,4.078969,0.52432424,1.3517019,0.12830316,inf,inf,inf,inf,0,1,0,1,1,0,1,0,2,0,0,0
29133675,0,0.0,0.0,0.0,0.0,0.7528827,-2.7622531e-05,-1.6538992e-05,0.0,-0.14488252,0.03026507,0.174732,0.01219343,-0.0055634505,-0.0033311164,0.0,1.5207322,1.8788117,0.37656516,-1.6019608,0.10878013,0.0,0.1,4.039136,0.522801,1.3212497,0.12776373,inf,inf,inf,inf,0,1,0,1,1,0,1,0,2,0,0,0
29242841,0,0.0,0.0,0.0,0.0,0.7553444,-2.7622531e-05,-1.6538992e-05,0.0,-0.14180154,0.037589956,0.19072142,0.029478835,-0.0055634505,-0.0033311164,0.0,-0.20424323,-2.4819648,1.4523525,-1.5916963,0.10878013,0.0,0.1,4.1825185,0.5223596,1.346306,0.12736903,inf,inf,inf,inf,0,1,0,1,1,0,1,0,2,0,0,0
29332204,0,0.0,0.0,0.0,0.0,0.7574845,-2.7622531e-05,-1.6538992e-05,0.0,-0.14059573,0.02914348,0.15397981,-0.0063292254,-0.0055634505,-0.0033311164,0.0,-0.39815897,-1.0356084,0.90715843,-1.5862358,0.10878013,0.0,0.1,4.1168003,0.5198622,1.3102987,0.12665817,inf,inf,inf,inf,0,1,0,1,1,0,1,0,2,0,0,0
29441426,0,0.0,0.0,0.0,0.0,0.75938153,-2.7622531e-05,-1.6538992e-05,0.0,-0.13775352,0.006549029,0.20328306,0.043346256,-0.0055634505,-0.0033311164,0.0,2.1784635,0.14125597,0.56841516,-1.5804436,0.10878013,0.0,0.1,4.2589564,0.5194285,1.3343221,0.12624979,inf,inf,inf,inf,0,1,0,1,1,0,1,0,2,0,0,0
29540730,0,0.0,0.0,0.0,0.0,0.764237,-2.7622531e-05,-1.6538992e-05,0.0,-0.13099222,-0.011874338,0.19318298,0.03446696,-0.0055634505,-0.0033311164,0.0,0.7120011,-0.9998703,1.3256032,-1.57382,0.10878013,0.0,0.1,4.1942406,0.5179418,1.2980914,0.12571499,inf,inf,inf,inf,0,1,0,1,1,0,1,0,2,0,0,0
29640012,0,0.0,0.0,0.0,0.0,0.76705825,-2.7622531e-05,-1.6538992e-05,0.0,-0.1529192,-0.034415476,0.17988692,0.023114199,-0.0055634505,-0.0033311164,0.0,-2.9221392,-3.8882802,1.253036,-1.5758566,0.10878013,0.0,0.1,4.322161,0.5222346,1.3190498,0.12605238,inf,inf,inf,inf,0,1,0,1,1,0,1,0,2,0,0,0
29739305,0,0.0,0.0,0.0,0.0,0.77055794,-2.7622531e-05,-1.6538992e-05,0.0,-0.13548692,-0.047068167,0.17351715,0.019351846,-0.0055634505,-0.0033311164,0.0,-3.3451166,-0.3057396,-0.06875407,-1.5881536,0.10878013,0.0,0.1,4.2467327,0.5207425,1.280987,0.1256081,inf,inf,inf,inf,0,1,0,1,1,0,1,0,2,0,0,0
29838598,0,0.0,0.0,0.0,0.0,0.7727444,-2.7622531e-05,-1.6538992e-05,0.0,-0.12984605,-0.03563311,0.18185158,0.028556144,-0.0055634505,-0.0033311164,0.0,1.749895,0.53376484,-0.54518306,-1.6053193,0.10878013,0.0,0.1,4.372879,0.51929724,1.3012159,0.12515292,inf,inf,inf,inf,0,1,0,1,1,0,1,0,2,0,0,0
29937939,0,0.0,0.0,0.0,0.0,0.77614796,-2.7622531e-05,-1.6538992e-05,0.0,-0.11468746,-0.01838867,0.18946542,0.0364719,-0.0055634505,-0.0033311164,0.0,-2.5556915,0.01393244,0.6609298,-1.6341035,0.10878013,0.0,0.1,4.5011115,0.5178774,1.3215187,0.12474183,inf,inf,inf,inf,0,1,0,1,1,0,1,0,2,0,0,0
30032219,0,0.0,0.0,0.0,0.0,0.7794907,-2.7622531e-05,-1.6538992e-05,0.0,-0.11090599,-0.022003869,0.19396433,0.040690135,-0.0055634505,-0.0033311164,0.0,0.78602654,-0.7862455,-0.7759433,-1.66105,0.10878013,0.0,0.1,4.3996186,0.5154319,1.2789202,0.12412715,inf,inf,inf,inf,0,1,0,1,1,0,1,0,2,0,0,0
30141467,0,0.0,0.0,0.0,0.0,0.78321695,-2.7622531e-05,-1.6538992e-05,0.0,-0.089442916,0.0065353494,0.19499037,0.04131882,-0.0055634505,-0.0033311164,0.0,-0.62591183,-0.14517358,-0.6850389,-1.6944677,0.10878013,0.0,0.1,4.5382957,0.5150084,1.3004457,0.1238819,inf,inf,inf,inf,0,1,0,1,1,0,1,0,2,0,0,0
30240734,0,0.0,0.0,0.0,0.0,0.7854303,-2.7622531e-05,-1.6538992e-05,0.0,-0.08318025,0.028924674,0.18860725,0.033588577,-0.0055634505,-0.0033311164,0.0,-0.89632523,0.6363717,-2.1053813,-1.7213478,0.10878013,0.0,0.1,4.442156,0.51360625,1.259424,0.12349978,inf,inf,inf,inf,0,1,0,1,1,0,1,0,2,0,0,0
30340027,0,0.0,0.0,0.0,0.0,0.78600454,-2.7622531e-05,-1.6538992e-05,0.0,-0.09452867,0.01403391,0.18661694,0.029781256,-0.0055634505,-0.0033311164,0.0,-2.3824587,0.7702805,-0.23328735,-1.7396746,0.10878013,0.0,0.1,4.566174,0.5178444,1.2781656,0.12393874,inf,inf,inf,inf,0,1,0,1,1,0,1,0,2,0,0,0
30439320,0,0.0,0.0,0.0,0.0,0.7895171,-2.7622531e-05,-1.6538992e-05,0.0,-0.095930904,0.0162338,0.17476065,0.018977089,-0.0055634505,-0.0033311164,0.0,-0.38582972,1.9029928,-2.872736,-1.747198,0.10878013,0.0,0.1,4.4628096,0.51642376,1.2363758,0.12350737,inf,inf,inf,inf,0,1,0,1,1,0,1,0,2,0,0,0
30533648,0,0.0,0.0,0.0,0.0,0.7909965,-2.7622531e-05,-1.6538992e-05,0.0,-0.114168026,0.028743759,0.18651731,0.029286403,-0.0055634505,-0.0033311164,0.0,-0.91159546,0.70085037,-1.3877492,-1.7516052,0.10878013,0.0,0.1,4.5721884,0.51409084,1.252574,0.12297647,inf,inf,inf,inf,0,1,0,1,1,0,1,0,2,0,0,0
30642919,0,0.0,0.0,0.0,0.0,0.79025626,-2.7622531e-05,-1.6538992e-05,0.0,-0.117520615,0.04092766,0.18724242,0.026090961,-0.0055634505,-0.0033311164,0.0,-1.8559508,1.5330039,-0.0779424,-1.7549574,0.10878013,0.0,0.1,4.47622,0.51367396,1.2125698,0.1226894,inf,inf,inf,inf,0,1,0,1,1,0,1,0,2,0,0,0
30732278,0,0.0,0.0,0.0,0.0,0.78932047,-2.7622531e-05,-1.6538992e-05,0.0,-0.13243707,0.050464023,0.17010203,0.007004219,-0.0055634505,-0.0033311164,0.0,-0.048390742,-0.16247436,-0.09792433,-1.7496377,0.10878013,0.0,0.1,4.583422,0.5113772,1.2282138,0.12221883,inf,inf,inf,inf,0,1,0,1,1,0,1,0,2,0,0,0
30841456,0,0.0,0.0,0.0,0.0,0.7875813,-2.7622531e-05,-1.6538992e-05,0.0,-0.1397328,0.052874375,0.18727762,0.021288866,-0.0055634505,-0.0033311164,0.0,2.0846677,-2.0248919,1.9928734,-1.7402745,0.10878013,0.0,0.1,4.4821877,0.5110023,1.1880842,0.12192623,inf,inf,inf,inf,0,1,0,1,1,0,1,0,2,0,0,0
30940748,0,0.0,0.0,0.0,0.0,0.78788465,-2.7622531e-05,-1.6538992e-05,0.0,-0.15121268,0.054452162,0.17510793,0.008285437,-0.0055634505,-0.0033311164,0.0,0.18380463,-1.0782722,0.3353016,-1.7294644,0.10878013,0.0,0.1,4.5988946,0.50971866,1.2046807,0.121555306,inf,inf,inf,inf,0,1,0,1,1,0,1,0,2,0,0,0
31040237,0,0.0,0.0,0.0,0.0,0.7904759,-2.7622531e-05,-1.6538992e-05,0.0,-0.16551952,0.07247946,0.20915882,0.043086924,-0.0055634505,-0.0033311164,0.0,-1.5053545,1.1917763,0.2703862,-1.717791,0.10878013,0.0,0.1,4.481659,0.5083974,1.1631138,0.121105865,inf,inf,inf,inf,0,1,0,1,1,0,1,0,2,0,0,0
31139337,0,0.0,0.0,0.0,0.0,0.7964487,-2.7622531e-05,-1.6538992e-05,0.0,-0.16265973,0.051697895,0.21240985,0.048899613,-0.0055634505,-0.0033311164,0.0,-1.1181347,0.96668357,-0.116163686,-1.706653,0.10878013,0.0,0.1,4.595837,0.5125409,1.1790426,0.121485345,inf,inf,inf,inf,0,1,0,1,1,0,1,0,2,0,0,0
31238627,0,0.0,0.0,0.0,0.0,0.79905015,-2.7622531e-05,-1.6538992e-05,0.0,-0.16439502,0.07111311,0.17691772,0.013817536,-0.0055634505,-0.0033311164,0.0,-0.38023216,-1.0667654,0.20378713,-1.6952019,0.10878013,0.0,0.1,4.47555,0.51119685,1.1379337,0.12102146,inf,inf,inf,inf,0,1,0,1,1,0,1,0,2,0,0,0
31342886,0,0.0,0.0,0.0,0.0,0.8008355,-2.7622531e-05,-1.6538992e-05,0.0,-0.16870794,0.06820148,0.14218213,-0.019298669,-0.0055634505,-0.0033311164,0.0,0.48101303,-0.3408722,-0.46342704,-1.6853963,0.10878013,0.0,0.1,4.587108,0.5099074,1.1532766,0.1206436,inf,inf,inf,inf,0,1,0,1,1,0,1,0,2,0,0,0
31432298,0,0.0,0.0,0.0,0.0,0.7990757,-2.7622531e-05,-1.6538992e-05,0.0,-0.17276886,0.08064891,0.11649838,-0.043276314,-0.0055634505,-0.0033311164,0.0,1.3386936,-1.2202853,1.0858614,-1.6802769,0.10878013,0.0,0.1,4.4548664,0.50763863,1.111768,0.12015063,inf,inf,inf,inf,0,1,0,1,1,0,1,0,2,0,0,0
31541474,0,0.0,0.0,0.0,0.0,0.79067624,-2.7622531e-05,-1.6538992e-05,0.0,-0.17947394,0.07157757,0.06639855,-0.093075834,-0.0055634505,-0.0033311164,0.0,-0.18504898,-1.3751093,1.7846773,-1.6741896,0.10878013,0.0,0.1,4.5747194,0.5073247,1.1281892,0.11997981,inf,inf,inf,inf,0,1,0,1,1,0,1,0,2,0,0,0
31635799,0,0.0,0.0,0.0,0.0,0.78102845,-2.7622531e-05,-1.6538992e-05,0.0,-0.19461936,0.06506382,0.033859998,-0.12472748,-0.0055634505,-0.0033311164,0.0,-0.6630056,0.7038824,-0.45326954,-1.6718159,0.10878013,0.0,0.10217768,4.4421654,0.5051141,1.087796,0.11949668,inf,inf,inf,inf,0,1,0,1,1,0,1,0,2,0,0,0
31735092,0,0.0,0.0,0.0,0.0,0.76817834,-2.7622531e-05,-1.6538992e-05,0.0,-0.1755711,0.03989838,0.019844376,-0.1382034,-0.0055634505,-0.0033311164,0.0,0.62578845,-1.7147088,1.1231064,-1.6718875,0.10878013,0.0,0.115027785,4.548593,0.5092072,1.1020688,0.11995424,inf,inf,inf,inf,0,1,0,1,1,0,1,0,2,0,0,0
31834488,0,0.0,0.0,0.0,0.0,0.75258255,-2.7622531e-05,-1.6538992e-05,0.0,-0.16921072,0.005949971,0.027288537,-0.13203558,-0.0055634505,-0.0033311164,0.0,0.17941268,-0.5352029,-0.000787872,-1.6731927,0.10878013,0.0,0.13062358,4.4259024,0.5079506,1.0641251,0.11964692,inf,inf,inf,inf,0,1,0,1,1,0,1,0,2,0,0,0
31933681,0,0.0,0.0,0.0,0.0,0.7367036,-2.7622531e-05,-1.6538992e-05,0.0,-0.17551555,-0.017637322,0.025478413,-0.13599738,-0.0055634505,-0.0033311164,0.0,0.4430599,0.8369176,-2.049151,-1.6765566,0.10878013,0.0,0.14650255,4.5298457,0.50674444,1.0778041,0.119319536,inf,inf,inf,inf,0,1,0,1,1,0,1,0,2,0,0,0
32042903,0,0.0,0.0,0.0,0.0,0.71955866,-2.7622531e-05,-1.6538992e-05,0.0,-0.16704525,-0.033559315,0.044579227,-0.11933369,-0.0055634505,-0.0033311164,0.0,3.0234725,-2.19028,2.5378542,-1.6797259,0.10878013,0.0,0.16364747,4.4166813,0.50644594,1.0418855,0.11905803,inf,inf,inf,inf,0,1,0,1,1,0,1,0,2,0,0,0
32137235,0,0.0,0.0,0.0,0.0,0.7085951,-2.7622531e-05,-1.6538992e-05,0.0,-0.15255927,-0.03988577,0.05762879,-0.10670348,-0.0055634505,-0.0033311164,0.0,1.1372242,-0.25467953,-0.36897713,-1.682279,0.10878013,0.0,0.17461103,4.508078,0.50432163,1.0537195,0.1186394,inf,inf,inf,inf,0,1,0,1,1,0,1,0,2,0,0,0
32236521,0,0.0,0.0,0.0,0.0,0.69771504,-2.7622531e-05,-1.6538992e-05,0.0,-0.17043552,-0.036525354,0.06563524,-0.09853813,-0.0055634505,-0.0033311164,0.0,-2.4963126,0.280239,-0.5881013,-1.6845459,0.10878013,0.0,0.18549109,4.385679,0.50310713,1.017799,0.11827725,inf,inf,inf,inf,0,1,0,1,1,0,1,0,2,0,0,0
32335814,0,0.0,0.0,0.0,0.0,0.6882556,-2.7622531e-05,-1.6538992e-05,0.0,-0.1553317,-0.052472312,0.08299195,-0.08146099,-0.0055634505,-0.0033311164,0.0,-0.53057307,0.5346159,-1.2140906,-1.6856979,0.10878013,0.0,0.19495052,4.484789,0.50195503,1.0305768,0.11794013,inf,inf,inf,inf,0,1,0,1,1,0,1,0,2,0,0,0
32435106,0,0.0,0.0,0.0,0.0,0.67973983,-2.7622531e-05,-1.6538992e-05,0.0,-0.12009567,-0.0632614,0.09180892,-0.07274581,-0.0055634505,-0.0033311164,0.0,1.0877043,0.7337046,-1.2596772,-1.6874744,0.10878013,0.0,0.2034663,4.362594,0.5007767,0.9956952,0.11755713,inf,inf,inf,inf,0,1,0,1,1,0,1,0,2,0,0,0
32534400,0,0.0,0.0,0.0,0.0,0.67284346,-2.7622531e-05,-1.6538992e-05,0.0,-0.11309732,-0.09305715,0.10647882,-0.057685114,-0.0055634505,-0.0033311164,0.0,-2.4853392,0.7335238,-0.5586294,-1.6910287,0.10878013,0.0,0.21036267,4.459403,0.5048076,1.0079517,0.117949426,inf,inf,inf,inf,0,1,0,1,1,0,1,0,2,0,0,0
32633761,0,0.0,0.0,0.0,0.0,0.6700129,-2.7622531e-05,-1.6538992e-05,0.0,-0.079554886,-0.13401714,0.15143502,-0.011597431,-0.0055634505,-0.0033311164,0.0,-0.4707793,0.082160674,1.1267736,-1.6916877,0.10878013,0.0,0.21319324,4.3377624,0.50356865,0.97422904,0.11761894,inf,inf,inf,inf,0,1,0,1,1,0,1,0,2,0,0,0
32742916,0,0.0,0.0,0.0,0.0,0.66950005,-2.7622531e-05,-1.6538992e-05,0.0,-0.043122225,-0.17771278,0.19209419,0.028060054,-0.0055634505,-0.0033311164,0.0,1.6825899,-2.8202796,3.1745822,-1.6897762,0.10878013,0.0,0.21370608,4.441799,0.50329375,0.9871887,0.11738958,inf,inf,inf,inf,0,1,0,1,1,0,1,0,2,0,0,0
32832305,0,0.0,0.0,0.0,0.0,0.6714397,-2.7622531e-05,-1.6538992e-05,0.0,-0.024949603,-0.210343,0.20416985,0.040206462,-0.0055634505,-0.0033311164,0.0,0.12538233,-1.0621243,1.4706184,-1.6862305,0.10878013,0.0,0.21176642,4.5279927,0.50117767,0.997805,0.116938524,inf,inf,inf,inf,0,1,0,1,1,0,1,0,2,0,0,0
32941501,0,0.0,0.0,0.0,0.0,0.6800389,-2.7622531e-05,-1.6538992e-05,0.0,-0.029985374,-0.23570532,0.24500036,0.08395387,-0.0055634505,-0.0033311164,0.0,-0.14158836,-0.25101116,0.8154026,-1.6812265,0.10878013,0.0,0.2031672,4.4130855,0.5008704,0.9659142,0.11673067,inf,inf,inf,inf,0,1,0,1,1,0,1,0,2,0,0,0
33040794,0,0.0,0.0,0.0,0.0,0.693256,-2.7622531e-05,-1.6538992e-05,0.0,-0.02045794,-0.26353317,0.27395767,0.116499655,-0.0055634505,-0.0033311164,0.0,-1.038065,0.35718936,-0.8265041,-1.6779315,0.10878013,0.0,0.18995011,4.5066648,0.49967173,0.97739965,0.11641472,inf,inf,inf,inf,0,1,0,1,1,0,1,0,2,0,0,0
33140086,0,0.0,0.0,0.0,0.0,0.7082987,-2.7622531e-05,-1.6538992e-05,0.0,-0.018878432,-0.2962233,0.29372507,0.138861,-0.0055634505,-0.0033311164,0.0,3.4079964,-2.1578395,1.6926278,-1.6747881,0.10878013,0.0,0.17490745,4.3833685,0.50362015,0.94543535,0.116768785,inf,inf,inf,inf,0,1,0,1,1,0,1,0,2,0,0,0
33239379,0,0.0,0.0,0.0,0.0,0.72416914,-2.7622531e-05,-1.6538992e-05,0.0,-0.03944722,-0.30129215,0.31956786,0.16592684,-0.0055634505,-0.0033311164,0.0,1.1939058,-0.55310476,0.49428537,-1.6704761,0.10878013,0.0,0.159037,4.4747615,0.5024188,0.95658576,0.1164239,inf,inf,inf,inf,0,1,0,1,1,0,1,0,2,0,0,0
33338672,33274130,34.0362177,108.7608392,-0.0015140533,-0.06055766,0.73899174,0.29549575,0.06588339,0.0,0.14695345,-0.38827306,0.2792256,0.123858936,0.17898631,-0.07041693,-0.06860788,-0.6544793,1.0077636,-1.5468078,-1.6615435,0.006815734,425.16885,0.14421439,0.84700364,0.5002851,0.24491122,0.19181563,inf,inf,inf,inf,1,1,1,1,2,0,2,1,3,1,1,0
33438018,33274130,34.0362177,108.7608392,0.02761905,-0.09817972,0.74873424,0.29549575,0.06588339,0.0,0.12954506,-0.3950247,0.3165009,0.15879855,0.17898631,-0.07041693,-0.06860788,-2.2579663,-0.3929981,0.6903548,-1.6598996,0.006815734,425.16885,0.1344719,0.8474299,0.49078456,0.2468336,0.19221407,inf,inf,inf,inf,1,1,1,1,2,0,2,1,3,1,1,0
33532293,33274130,34.0362177,108.7608392,0.054563556,-0.13560763,0.76194865,0.29549575,0.06588339,0.0,0.13039154,-0.38098383,0.33171672,0.17351672,0.17898631,-0.07041693,-0.06860788,0.29666916,1.1842985,-1.098876,-1.6566938,0.006815734,425.16885,0.121257484,0.6913309,0.48679948,0.21562608,0.17712879,inf,inf,inf,inf,1,1,1,1,2,0,2,1,3,1,1,0
33641516,33274130,34.0362177,108.7608392,0.08368788,-0.1734542,0.7777952,0.29549575,0.06588339,0.0,0.13102289,-0.38073945,0.36457938,0.20450775,0.17898631,-0.07041693,-0.06860788,-2.2509832,0.5663477,1.3658707,-1.6547343,0.006815734,425.16885,0.10541093,0.69270957,0.47931644,0.22210659,0.17784984,inf,inf,inf,inf,1,1,1,1,2,0,2,1,3,1,1,0
33731104,33274130,34.0362177,108.7608392,0.10381434,-0.20307553,0.7916435,0.29549575,0.06588339,0.0,0.10192509,-0.3651953,0.35244617,0.1904249,0.17898631,-0.07041693,-0.06860788,-0.6705204,-1.4941072,1.9757007,-1.6521848,0.006815734,425.16885,0.1,0.5992522,0.47185817,0.20208026,0.16598685,inf,inf,inf,inf,1,1,1,1,2,0,2,1,3,1,1,0
33835138,33274130,34.0362177,108.7608392,0.12805147,-0.23352036,0.80518115,0.29549575,0.06588339,0.0,0.122496076,-0.34250623,0.28056717,0.116762154,0.17898631,-0.07041693,-0.06860788,-2.9400403,-0.82513404,-1.1275231,-1.652841,0.006815734,425.16885,0.1,0.6011916,0.46579257,0.21168286,0.16688381,inf,inf,inf,inf,1,1,1,1,2,0,2,1,3,1,1,0
33934430,33274130,34.0362177,108.7608392,0.14959854,-0.2616985,0.80938435,0.29549575,0.06588339,0.0,0.12409945,-0.3262602,0.17830883,0.013157923,0.17898631,-0.07041693,-0.06860788,3.4204943,0.91888463,-1.9269388,-1.6567547,0.006815734,425.16885,0.1,0.5369357,0.45953453,0.19804989,0.1573634,inf,inf,inf,inf,1,1,1,1,2,0,2,1,3,1,1,0
34033724,33274130,34.0362177,108.7608392,0.17490797,-0.28518823,0.8042004,0.29549575,0.06588339,0.0,0.14687976,-0.30624643,0.11350734,-0.053735614,0.17898631,-0.07041693,-0.06860788,1.5781362,-0.93931925,0.8162068,-1.6655533,0.006815734,425.16885,0.1,0.53956944,0.45469657,0.21109323,0.15855372,inf,inf,inf,inf,1,1,1,1,2,0,2,1,3,1,1,0
34142945,33274130,34.0362177,108.7608392,0.20124446,-0.31015277,0.78593385,0.29549575,0.06588339,0.0,0.13981275,-0.27316287,0.028488174,-0.14498672,0.17898631,-0.07041693,-0.06860788,-0.5493351,0.2701689,-0.000135194,-1.6787735,0.006815734,425.16885,0.1,0.49185368,0.44949943,0.20048712,0.15081966,inf,inf,inf,inf,1,1,1,1,2,0,2,1,3,1,1,0
34232307,33274130,34.0362177,108.7608392,0.22649544,-0.3268122,0.7652205,0.29549575,0.06588339,0.0,0.15136057,-0.25496456,-0.0147969425,-0.19310927,0.17898631,-0.07041693,-0.06860788,-0.5797877,0.7389125,-0.7863081,-1.687946,0.006815734,425.16885,0.117985606,0.4948947,0.44896218,0.21382421,0.15219973,inf,inf,inf,inf,1,1,1,1,2,0,2,1,3,1,1,0
34341550,33274130,34.0362177,108.7608392,0.25347856,-0.34564617,0.7398921,0.29549575,0.06588339,0.0,0.13676874,-0.21652539,-0.042109225,-0.22225803,0.17898631,-0.07041693,-0.06860788,-0.71160287,1.0932037,-1.1784571,-1.6980488,0.006815734,425.16885,0.143314,0.4574617,0.44424886,0.20329724,0.1457374,inf,inf,inf,inf,1,1,1,1,2,0,2,1,3,1,1,0
34440824,33274130,34.0362177,108.7608392,0.2758427,-0.3609103,0.7172577,0.29549575,0.06588339,0.0,0.12078949,-0.21475433,-0.055763405,-0.23468429,0.17898631,-0.07041693,-0.06860788,0.19378445,-0.9314292,0.80052406,-1.7015301,0.006815734,425.16885,0.16594845,0.46164596,0.44113836,0.2185057,0.14745167,inf,inf,inf,inf,1,1,1,1,2,0,2,1,3,1,1,0
34540290,33274130,34.0362177,108.7608392,0.29330504,-0.37338156,0.694272,0.29549575,0.06588339,0.0,0.09857988,-0.15904874,-0.084357776,-0.26094088,0.17898631,-0.07041693,-0.06860788,1.3858923,2.61012,-1.7033093,-1.7010213,0.006815734,425.16885,0.18893415,0.4305319,0.43649083,0.20517136,0.14172676,inf,inf,inf,inf,1,1,1,1,2,0,2,1,3,1,1,0
34634445,33274130,34.0362177,108.7608392,0.30788457,-0.3825048,0.670291,0.29549575,0.06588339,0.0,0.09055576,-0.15551467,-0.104767025,-0.2794645,0.17898631,-0.07041693,-0.06860788,1.2762907,-1.1885278,1.5014683,-1.6974151,0.006815734,425.16885,0.21291512,0.43491048,0.4336004,0.21848749,0.14342353,inf,inf,inf,inf,1,1,1,1,2,0,2,1,3,1,1,0
34733739,33274130,34.0362177,108.7608392,0.3202158,-0.38970044,0.64167786,0.29549575,0.06588339,0.0,0.049089473,-0.11237216,-0.15574475,-0.3278702,0.17898631,-0.07041693,-0.06860788,2.1576025,-0.2924696,0.40371904,-1.6938665,0.006815734,425.16885,0.24152827,0.40860328,0.42932463,0.20478137,0.138482,inf,inf,inf,inf,1,1,1,1,2,0,2,1,3,1,1,0
34837996,33274130,34.0362177,108.7608392,0.33568057,-0.38829902,0.6079795,0.29549575,0.06588339,0.0,0.0332103,-0.06697863,-0.19418743,-0.3630234,0.17898631,-0.07041693,-0.06860788,0.0073084324,-0.81840044,0.5616281,-1.6903672,0.006815734,425.16885,0.27522665,0.41411084,0.42741203,0.21913153,0.14060673,inf,inf,inf,inf,1,1,1,1,2,0,2,1,3,1,1,0
34937288,33274130,34.0362177,108.7608392,0.34604466,-0.385653,0.5728147,0.29549575,0.06588339,0.0,0.019417156,-0.03375355,-0.22478695,-0.38998076,0.17898631,-0.07041693,-0.06860788,0.12863795,-0.39905986,0.42633855,-1.6870013,0.006815734,425.16885,0.31039143,0.3910071,0.4265696,0.20403026,0.13629277,inf,inf,inf,inf,1,1,1,1,2,0,2,1,3,1,1,0
35036582,33274130,34.0362177,108.7608392,0.35410932,-0.38363197,0.52889705,0.29549575,0.06588339,0.0,-0.014004594,0.012518246,-0.25931922,-0.4261761,0.17898631,-0.07041693,-0.06860788,0.49230984,1.4489547,-0.63698953,-1.6821324,0.006815734,425.16885,0.35430908,0.397129,0.4251134,0.21806154,0.13869819,inf,inf,inf,inf,1,1,1,1,2,0,2,1,3,1,1,0
35135875,33274130,34.0362177,108.7608392,0.35928816,-0.37747455,0.4818347,0.29549575,0.06588339,0.0,-0.011306987,0.030976629,-0.2759979,-0.44520673,0.17898631,-0.07041693,-0.06860788,0.3536405,0.14450997,-0.15928504,-1.6773444,0.006815734,425.16885,0.40137142,0.3766096,0.42130607,0.20279022,0.13469759,inf,inf,inf,inf,1,1,1,1,2,0,2,1,3,1,1,0
35235167,33274130,34.0362177,108.7608392,0.36731395,-0.3617554,0.4284263,0.29549575,0.06588339,0.0,-0.039271567,0.081817515,-0.30736077,-0.48262468,0.17898631,-0.07041693,-0.06860788,-2.882293,1.5891173,-0.5851858,-1.67542,0.006815734,425.16885,0.45477983,0.38330287,0.4202777,0.2155275,0.13720517,inf,inf,inf,inf,1,1,1,1,2,0,2,1,3,1,1,0
35334575,33274130,34.0362177,108.7608392,0.3710563,-0.34540677,0.37648526,0.29549575,0.06588339,0.0,-0.048262168,0.0908456,-0.3237914,-0.5005263,0.17898631,-0.07041693,-0.06860788,-1.4473286,-0.5590142,0.14768477,-1.6758598,0.006815734,425.16885,0.5067209,0.36459348,0.4166667,0.2002829,0.13353331,inf,inf,inf,inf,1,1,1,1,2,0,2,1,3,1,1,0
35433754,33274130,34.0362177,108.7608392,0.37109414,-0.33167818,0.32530627,0.29549575,0.06588339,0.0,-0.062190272,0.10795534,-0.33325347,-0.50955147,0.17898631,-0.07041693,-0.06860788,-0.18879437,-0.27276853,-0.4068874,-1.676179,0.006815734,425.16885,0.55789983,0.371775,0.41601276,0.2120987,0.13616821,inf,inf,inf,inf,1,1,1,1,2,0,2,1,3,1,1,0
35542979,33274130,34.0362177,108.7608392,0.36898693,-0.31745517,0.27009264,0.29549575,0.06588339,0.0,-0.07768532,0.108683735,-0.34327123,-0.5170349,0.17898631,-0.07041693,-0.06860788,-0.60793567,-0.54967314,-0.28754482,-1.676748,0.006815734,425.16885,0.6131135,0.35521537,0.4131012,0.19818169,0.13302521,inf,inf,inf,inf,1,1,1,1,2,0,2,1,3,1,1,0
35632342,33274130,34.0362177,108.7608392,0.37136352,-0.3085888,0.22339025,0.29549575,0.06588339,0.0,-0.07477748,0.10239122,-0.34780073,-0.5206189,0.17898631,-0.07041693,-0.06860788,0.82320476,0.41770643,-0.4363801,-1.6777334,0.006815734,425.16885,0.6598159,0.36210546,0.4151365,0.20799434,0.13561313,inf,inf,inf,inf,1,1,1,1,2,0,2,1,3,1,1,0
35741562,33274130,34.0362177,108.7608392,0.371878,-0.2977841,0.16393143,0.29549575,0.06588339,0.0,-0.085825495,0.08471089,-0.34793597,-0.5219387,0.17898631,-0.07041693,-0.06860788,0.5343417,0.10852994,-1.1436448,-1.6797076,0.006815734,425.16885,0.7192747,0.34675932,0.4123213,0.19449772,0.13265347,inf,inf,inf,inf,1,1,1,1,2,0,2,1,3,1,1,0
35840871,33274130,34.0362177,108.7608392,0.37299812,-0.28621662,0.10904367,0.29549575,0.06588339,0.0,-0.1059819,0.07686927,-0.36042157,-0.5356542,0.17898631,-0.07041693,-0.06860788,0.84476537,1.2326427,-1.770892,-1.6811719,0.006815734,425.16885,0.7741625,0.35481927,0.41232392,0.2046814,0.13549297,inf,inf,inf,inf,1,1,1,1,2,0,2,1,3,1,1,0
35935183,33274130,34.0362177,108.7608392,0.3695419,-0.27880144,0.05934713,0.29549575,0.06588339,0.0,-0.12392541,0.05161776,-0.35125813,-0.52598745,0.17898631,-0.07041693,-0.06860788,0.61135614,-1.0831634,1.4851855,-1.6839515,0.006815734,425.16885,0.823859,0.33863854,0.4084759,0.1894967,0.13198227,inf,inf,inf,inf,1,1,1,1,2,0,2,1,3,1,1,0
36034476,33274130,34.0362177,108.7608392,0.36029643,-0.2777631,0.00022393093,0.29549575,0.06588339,0.0,-0.15415667,0.014673847,-0.34989476,-0.5299822,0.17898631,-0.07041693,-0.06860788,-3.2688735,1.3658801,-0.7664436,-1.6859107,0.006815734,425.16885,0.8829822,0.3468397,0.40871468,0.19899713,0.1348846,inf,inf,inf,inf,1,1,1,1,2,0,2,1,3,1,1,0
36133847,33274130,34.0362177,108.7608392,0.35036287,-0.28132775,-0.053155266,0.29549575,0.06588339,0.0,-0.15598795,-0.0340032,-0.33914056,-0.51875937,0.17898631,-0.07041693,-0.06860788,-2.1340728,0.10117142,-0.60539573,-1.6891525,0.006815734,425.16885,0.9363614,0.3323327,0.40555096,0.18573196,0.13183798,inf,inf,inf,inf,1,1,1,1,2,0,2,1,3,1,1,0
36242991,33274130,34.0362177,108.7608392,0.35591608,-0.2885054,-0.1094957,0.29549575,0.06588339,0.0,-0.12927927,-0.081581056,-0.3374639,-0.5151965,0.17898631,-0.07041693,-0.06860788,2.1763172,1.4291582,-2.1745992,-1.6910915,0.006815734,425.16885,0.9927018,0.34165582,0.4066547,0.19540782,0.13507985,inf,inf,inf,inf,1,1,1,1,2,0,2,1,3,1,1,0
36332355,33274130,34.0362177,108.7608392,0.359358,-0.29848394,-0.15457271,0.29549575,0.06588339,0.0,-0.123206906,-0.14741467,-0.3320797,-0.5074866,0.17898631,-0.07041693,-0.06860788,0.3353694,-2.4947188,1.2522572,-1.6945816,0.006815734,425.16885,1.0377789,0.32692713,0.40565604,0.1817353,0.13185467,inf,inf,inf,inf,1,1,1,1,2,0,2,1,3,1,1,0
36441577,33274130,34.0362177,108.7608392,0.37747362,-0.30624864,-0.2048212,0.29549575,0.06588339,0.0,-0.10384894,-0.20259157,-0.27311203,-0.44390395,0.17898631,-0.07041693,-0.06860788,-1.6737027,-0.2805041,0.90581316,-1.6955492,0.006815734,425.16885,1.0880274,0.3364353,0.40700808,0.19092873,0.13518313,inf,inf,inf,inf,1,1,1,1,2,0,2,1,3,1,1,0
36540878,33274130,34.0362177,108.7608392,0.38910204,-0.3212104,-0.24223492,0.29549575,0.06588339,0.0,-0.09369657,-0.25845814,-0.18121465,-0.3488032,0.17898631,-0.07041693,-0.06860788,1.0893241,-0.3080157,1.0267467,-1.6972183,0.006815734,425.16885,1.1254411,0.3231166,0.40390354,0.1789797,0.13215515,inf,inf,inf,inf,1,1,1,1,2,0,2,1,3,1,1,0
36640158,33274130,34.0362177,108.7608392,0.39847338,-0.343703,-0.27234188,0.29549575,0.06588339,0.0,-0.08810636,-0.32148775,-0.08388458,-0.25090805,0.17898631,-0.07041693,-0.06860788,0.047657132,-1.1810325,1.4307783,-1.697341,0.006815734,425.16885,1.155548,0.33195773,0.4048528,0.18652803,0.1350375,inf,inf,inf,inf,1,1,1,1,2,0,2,1,3,1,1,0
36739475,33274130,34.0362177,108.7608392,0.40503266,-0.37315804,-0.29175627,0.29549575,0.06588339,0.0,-0.09013391,-0.37564906,0.008652735,-0.15650508,0.17898631,-0.07041693,-0.06860788,-1.3334396,0.077195294,1.054911,-1.697626,0.006815734,425.16885,1.1749624,0.31898507,0.4017901,0.17478384,0.1318775,inf,inf,inf,inf,1,1,1,1,2,0,2,1,3,1,1,0
36838751,33274130,34.0362177,108.7608392,0.4139174,-0.40714225,-0.301466,0.29549575,0.06588339,0.0,-0.098786786,-0.42925104,0.10454608,-0.058688443,0.17898631,-0.07041693,-0.06860788,-0.53250986,0.40074325,0.3370782,-1.6970075,0.006815734,425.16885,1.1846721,0.3279037,0.40291092,0.18183681,0.1347067,inf,inf,inf,inf,1,1,1,1,2,0,2,1,3,1,1,0
36938139,33274130,34.0362177,108.7608392,0.41928506,-0.44675642,-0.3000863,0.29549575,0.06588339,0.0,-0.09729932,-0.4832489,0.20212705,0.041930567,0.17898631,-0.07041693,-0.06860788,-1.0973463,-0.10892474,0.8853187,-1.6959108,0.006815734,425.16885,1.1832924,0.31530568,0.39987642,0.17086875,0.13157462,inf,inf,inf,inf,1,1,1,1,2,0,2,1,3,1,1,0
37032370,33274130,34.0362177,108.7608392,0.42659548,-0.4867294,-0.29094362,0.29549575,0.06588339,0.0,-0.09716665,-0.5328483,0.2824684,0.12316909,0.17898631,-0.07041693,-0.06860788,-3.21014,0.95075077,-1.4604656,-1.6934615,0.006815734,425.16885,1.1741498,0.32334036,0.40311986,0.17688309,0.13427733,inf,inf,inf,inf,1,1,1,1,2,0,2,1,3,1,1,0
37141592,33274130,34.0362177,108.7608392,0.43092942,-0.5387983,-0.27198642,0.29549575,0.06588339,0.0,-0.11067499,-0.56497943,0.3226365,0.16654189,0.17898631,-0.07041693,-0.06860788,-0.0658493,-0.5730215,0.6403822,-1.6911874,0.006815734,425.16885,1.1551926,0.3120073,0.40072113,0.16741493,0.13153598,inf,inf,inf,inf,1,1,1,1,2,0,2,1,3,1,1,0
37231134,33274130,34.0362177,108.7608392,0.43573847,-0.58233535,-0.25654176,0.29549575,0.06588339,0.0,-0.1105907,-0.58226436,0.3078601,0.15397222,0.17898631,-0.07041693,-0.06860788,-2.970547,0.940816,-1.3211058,-1.6880087,0.006815734,425.16885,1.1397479,0.32008132,0.40145877,0.17320639,0.13402463,inf,inf,inf,inf,1,1,1,1,2,0,2,1,3,1,1,0
37335213,33274130,34.0362177,108.7608392,0.43599036,-0.63672084,-0.23889104,0.29549575,0.06588339,0.0,-0.13007864,-0.5925385,0.27654496,0.12609972,0.17898631,-0.07041693,-0.06860788,-0.6075002,-2.3258255,0.47908473,-1.683479,0.006815734,425.16885,1.1220971,0.3081613,0.40102723,0.16368514,0.13124204,inf,inf,inf,inf,1,1,1,1,2,0,2,1,3,1,1,0
37434507,33274130,34.0362177,108.7608392,0.4383781,-0.6864476,-0.22808726,0.29549575,0.06588339,0.0,-0.1268017,-0.5608871,0.2191979,0.07072182,0.17898631,-0.07041693,-0.06860788,-1.7837391,0.048776228,-1.0019059,-1.6787733,0.006815734,425.16885,1.1112934,0.31712848,0.40253985,0.17042467,0.1342717,inf,inf,inf,inf,1,1,1,1,2,0,2,1,3,1,1,0
37533800,33274130,34.0362177,108.7608392,0.43824607,-0.7353085,-0.2231944,0.29549575,0.06588339,0.0,-0.13483985,-0.5237007,0.16306964,0.016072119,0.17898631,-0.07041693,-0.06860788,0.23847707,-0.2352987,-0.47223943,-1.6734806,0.006815734,425.16885,1.1064005,0.305532,0.39945197,0.16154729,0.13130538,inf,inf,inf,inf,1,1,1,1,2,0,2,1,3,1,1,0
37643025,33274130,34.0362177,108.7608392,0.44028974,-0.78641194,-0.22422637,0.29549575,0.06588339,0.0,-0.13410367,-0.48693198,0.0897056,-0.054886624,0.17898631,-0.07041693,-0.06860788,3.116025,-0.49181962,-0.15890998,-1.6670297,0.006815734,425.16885,1.1074325,0.31549785,0.40179163,0.16860825,0.13460058,inf,inf,inf,inf,1,1,1,1,2,0,2,1,3,1,1,0
37732392,33274130,34.0362177,108.7608392,0.43870577,-0.82508457,-0.22905383,0.29549575,0.06588339,0.0,-0.13845111,-0.4594484,0.049307287,-0.09239477,0.17898631,-0.07041693,-0.06860788,0.7360224,-0.31428927,0.4899972,-1.6618937,0.006815734,425.16885,1.11226,0.3031644,0.39801106,0.1594886,0.13130097,inf,inf,inf,inf,1,1,1,1,2,0,2,1,3,1,1,0
37836644,33274130,34.0362177,108.7608392,0.43900552,-0.8646154,-0.2376614,0.29549575,0.06588339,0.0,-0.13121901,-0.4291716,-2.3065208e-05,-0.13802528,0.17898631,-0.07041693,-0.06860788,-0.108435884,-0.6696774,-0.73414946,-1.6585497,0.006815734,425.16885,1.1208675,0.3122167,0.39975482,0.16578488,0.1342263,inf,inf,inf,inf,1,1,1,1,2,0,2,1,3,1,1,0
37935940,33274130,34.0362177,108.7608392,0.4377031,-0.90055364,-0.2499848,0.29549575,0.06588339,0.0,-0.114044674,-0.39581653,-0.048086427,-0.18184191,0.17898631,-0.07041693,-0.06860788,0.30844915,0.37263545,-1.1313134,-1.6596819,0.006815734,425.16885,1.1331909,0.30095547,0.39668107,0.15740061,0.13115297,inf,inf,inf,inf,1,1,1,1,2,0,2,1,3,1,1,0
38035402,33274130,34.0362177,108.7608392,0.44629678,-0.9326114,-0.26711607,0.29549575,0.06588339,0.0,-0.06336937,-0.37677613,-0.10759861,-0.23729666,0.17898631,-0.07041693,-0.06860788,2.2450206,0.68594784,-1.5367188,-1.6643146,0.006815734,425.16885,1.1503222,0.310016,0.4011473,0.16370994,0.13432418,inf,inf,inf,inf,1,1,1,1,2,0,2,1,3,1,1,0
38134530,33274130,34.0362177,108.7608392,0.45497215,-0.9632943,-0.28847682,0.29549575,0.06588339,0.0,-0.027101053,-0.35842863,-0.17242396,-0.29654217,0.17898631,-0.07041693,-0.06860788,-2.218973,0.13193886,-0.50444734,-1.6706197,0.006815734,425.16885,1.171683,0.29899907,0.39801922,0.15566151,0.13121916,inf,inf,inf,inf,1,1,1,1,2,0,2,1,3,1,1,0
38233815,33274130,34.0362177,108.7608392,0.46557966,-0.9836112,-0.31656376,0.29549575,0.06588339,0.0,-0.0064498447,-0.31700137,-0.23795573,-0.35704848,0.17898631,-0.07041693,-0.06860788,1.6129161,0.43726566,-1.2970606,-1.67656,0.006815734,425.16885,1.1997699,0.30805537,0.3999679,0.16172418,0.13403873,inf,inf,inf,inf,1,1,1,1,2,0,2,1,3,1,1,0
38343038,33274130,34.0362177,108.7608392,0.47953048,-1.0058995,-0.35466692,0.29549575,0.06588339,0.0,0.027958255,-0.29362637,-0.2820332,-0.39819816,0.17898631,-0.07041693,-0.06860788,0.3908047,-1.4323117,0.031242782,-1.6834158,0.006815734,425.16885,1.2378731,0.29825076,0.39754528,0.15478222,0.13131051,inf,inf,inf,inf,1,1,1,1,2,0,2,1,3,1,1,0
38432401,33274130,34.0362177,108.7608392,0.49269387,-1.0237424,-0.39164728,0.29549575,0.06588339,0.0,0.030672316,-0.26261753,-0.301803,-0.41869366,0.17898631,-0.07041693,-0.06860788,-0.2087887,0.6625616,0.28318658,-1.6848716,0.006815734,425.16885,1.2748535,0.30643922,0.3988617,0.16013452,0.13373277,inf,inf,inf,inf,1,1,1,1,2,0,2,1,3,1,1,0
38541639,33274130,34.0362177,108.7608392,0.5049712,-1.045663,-0.43847123,0.29549575,0.06588339,0.0,0.0309928,-0.2284737,-0.32164252,-0.43821052,0.17898631,-0.07041693,-0.06860788,1.5013511,0.56210214,-0.92407376,-1.685609,0.006815734,425.16885,1.3216773,0.2966756,0.39644158,0.15307926,0.13086033,inf,inf,inf,inf,1,1,1,1,2,0,2,1,3,1,1,0
38640917,33274130,34.0362177,108.7608392,0.5180685,-1.0692681,-0.48041362,0.29549575,0.06588339,0.0,0.012162288,-0.20479824,-0.331738,-0.44610524,0.17898631,-0.07041693,-0.06860788,0.5749459,-0.37222305,0.3540654,-1.6892354,0.006815734,425.16885,1.3636198,0.30578628,0.39855206,0.158746,0.13350499,inf,inf,inf,inf,1,1,1,1,2,0,2,1,3,1,1,0
38740210,33274130,34.0362177,108.7608392,0.5256117,-1.0893271,-0.5237445,0.29549575,0.06588339,0.0,0.016045546,-0.17832784,-0.3271723,-0.44109815,0.17898631,-0.07041693,-0.06860788,1.0711911,0.28284037,1.1556941,-1.6906594,0.006815734,425.16885,1.4069507,0.29525188,0.39795944,0.15134121,0.13057433,inf,inf,inf,inf,1,1,1,1,2,0,2,1,3,1,1,0
38839644,33274130,34.0362177,108.7608392,0.5252524,-1.1027851,-0.57802624,0.29549575,0.06588339,0.0,-0.013469003,-0.15251008,-0.31618643,-0.44035572,0.17898631,-0.07041693,-0.06860788,-1.0019488,-0.19586495,1.2529322,-1.6925801,0.006815734,425.16885,1.4612324,0.3043314,0.4001594,0.1567987,0.13311906,inf,inf,inf,inf,1,1,1,1,2,0,2,1,3,1,1,0
38933833,33274130,34.0362177,108.7608392,0.5232069,-1.1128509,-0.62269914,0.29549575,0.06588339,0.0,-0.020256082,-0.12153987,-0.29795557,-0.42640844,0.17898631,-0.07041693,-0.06860788,1.3158801,-0.670273,0.25693843,-1.6917325,0.006815734,425.16885,1.5059053,0.29311866,0.3962156,0.14907181,0.12960143,inf,inf,inf,inf,1,1,1,1,2,0,2,1,3,1,1,0
39043070,33274130,34.0362177,108.7608392,0.5241924,-1.1123469,-0.67105436,0.29549575,0.06588339,0.0,-0.03570555,-0.09581405,-0.27774915,-0.4081199,0.17898631,-0.07041693,-0.06860788,1.2267784,-2.405028,1.4503909,-1.6910616,0.006815734,425.16885,1.5542605,0.30303007,0.39915615,0.15509246,0.13240965,inf,inf,inf,inf,1,1,1,1,2,0,2,1,3,1,1,0
39132424,33274130,34.0362177,108.7608392,0.5222915,-1.1136303,-0.70713645,0.29549575,0.06588339,0.0,-0.048827365,-0.090623416,-0.2607759,-0.39051947,0.17898631,-0.07041693,-0.06860788,-0.003187547,-0.73988664,0.8557569,-1.6895447,0.006815734,425.16885,1.5903425,0.2920444,0.3977883,0.14764485,0.12918676,inf,inf,inf,inf,1,1,1,1,2,0,2,1,3,1,1,0
39241639,33274130,34.0362177,108.7608392,0.51826084,-1.1190299,-0.74822825,0.29549575,0.06588339,0.0,-0.04964264,-0.08293874,-0.24530974,-0.37386876,0.17898631,-0.07041693,-0.06860788,-0.27608544,0.8653385,-0.77675307,-1.6880279,0.006815734,425.16885,1.6314344,0.30192822,0.40081903,0.15333831,0.13186415,inf,inf,inf,inf,1,1,1,1,2,0,2,1,3,1,1,0
39340934,33274130,34.0362177,108.7608392,0.51483214,-1.1278229,-0.7822707,0.29549575,0.06588339,0.0,-0.045391113,-0.114570364,-0.21396422,-0.340624,0.17898631,-0.07041693,-0.06860788,-2.0273733,-1.1022125,0.8731592,-1.687446,0.006815734,425.16885,1.6654768,0.29182604,0.39757356,0.14651383,0.1286509,inf,inf,inf,inf,1,1,1,1,2,0,2,1,3,1,1,0
39440227,33274130,34.0362177,108.7608392,0.5169348,-1.1465158,-0.80956423,0.29549575,0.06588339,0.0,-0.0112686185,-0.15639085,-0.17625536,-0.29774132,0.17898631,-0.07041693,-0.06860788,0.56408274,0.47678754,0.2825652,-1.6864343,0.006815734,425.16885,1.6927704,0.30080113,0.39989287,0.15166312,0.13099098,inf,inf,inf,inf,1,1,1,1,2,0,2,1,3,1,1,0
39539519,33274130,34.0362177,108.7608392,0.5176036,-1.1673806,-0.8352309,0.29549575,0.06588339,0.0,-0.0068042953,-0.20351925,-0.13538131,-0.2545871,0.17898631,-0.07041693,-0.06860788,-1.1285791,-0.9134095,1.3131435,-1.68736,0.006815734,425.16885,1.718437,0.29081264,0.39666194,0.14505109,0.1278132,inf,inf,inf,inf,1,1,1,1,2,0,2,1,3,1,1,0
39638984,33274130,34.0362177,108.7608392,0.51495326,-1.1841856,-0.863008,0.29549575,0.06588339,0.0,-0.0001447403,-0.1996126,-0.12955016,-0.25138405,0.17898631,-0.07041693,-0.06860788,-0.1343031,2.1183333,-2.1462321,-1.6869158,0.006815734,425.16885,1.7462142,0.29974392,0.3989935,0.15010722,0.13006806,inf,inf,inf,inf,1,1,1,1,2,0,2,1,3,1,1,0
39743069,33274130,34.0362177,108.7608392,0.5148863,-1.2044988,-0.8883413,0.29549575,0.06588339,0.0,-0.0033672561,-0.2245884,-0.10138765,-0.22442625,0.17898631,-0.07041693,-0.06860788,-2.7051558,-0.06163944,0.3047794,-1.68673,0.006815734,425.16885,1.7715474,0.2898596,0.3957785,0.14370696,0.12693976,inf,inf,inf,inf,1,1,1,1,2,0,2,1,3,1,1,0
39832433,33274130,34.0362177,108.7608392,0.5182604,-1.2245222,-0.906891,0.29549575,0.06588339,0.0,0.008748173,-0.21877575,-0.08998533,-0.21129307,0.17898631,-0.07041693,-0.06860788,2.086202,-0.6922717,1.6957313,-1.6859671,0.006815734,425.16885,1.7900971,0.2978321,0.39994347,0.14853755,0.12920412,inf,inf,inf,inf,1,1,1,1,2,0,2,1,3,1,1,0
39941656,33274130,34.0362177,108.7608392,0.5213079,-1.2457633,-0.93089616,0.29549575,0.06588339,0.0,-0.020341903,-0.18673153,-0.07937183,-0.20121658,0.17898631,-0.07041693,-0.06860788,-1.2497959,-0.56999797,1.5916188,-1.6859168,0.006815734,425.16885,1.8141023,0.2889528,0.39491826,0.14292926,0.12612095,inf,inf,inf,inf,1,1,1,1,2,0,2,1,3,1,1,0
40040948,33274130,34.0362177,108.7608392,0.52393657,-1.2598275,-0.9583361,0.29549575,0.06588339,0.0,-0.018695898,-0.15816,-0.07714659,-0.20595106,0.17898631,-0.07041693,-0.06860788,0.5671847,0.21929553,0.2752173,-1.6842157,0.006815734,425.16885,1.8415422,0.2978095,0.39985326,0.1480625,0.12856263,inf,inf,inf,inf,1,1,1,1,2,0,2,1,3,1,1,0
40140243,33274130,34.0362177,108.7608392,0.5249372,-1.2715843,-0.98276865,0.29549575,0.06588339,0.0,-0.035951544,-0.13108626,-0.06858887,-0.20121343,0.17898631,-0.07041693,-0.06860788,-4.4659142,1.7488327,-1.5300862,-1.6818212,0.006815734,425.16885,1.8659748,0.28812668,0.39662004,0.14210464,0.12552822,inf,inf,inf,inf,1,1,1,1,2,0,2,1,3,1,1,0
40234571,33274130,34.0362177,108.7608392,0.5251052,-1.2802422,-1.0036756,0.29549575,0.06588339,0.0,-0.03633317,-0.13115461,-0.05605544,-0.19129802,0.17898631,-0.07041693,-0.06860788,-1.0202994,-1.5957648,0.86089903,-1.681898,0.006815734,425.16885,1.8868817,0.2960413,0.39824188,0.1466912,0.12735024,inf,inf,inf,inf,1,1,1,1,2,0,2,1,3,1,1,0
40333863,33274130,34.0362177,108.7608392,0.52442175,-1.2897197,-1.022719,0.29549575,0.06588339,0.0,-0.029773755,-0.13015035,-0.03229205,-0.16765465,0.17898631,-0.07041693,-0.06860788,-1.7493708,-1.3704581,1.966438,-1.6826147,0.006815734,425.16885,1.9059252,0.2865202,0.3950532,0.14091128,0.12437728,inf,inf,inf,inf,1,1,1,1,2,0,2,1,3,1,1,0
40443174,33274130,34.0362177,108.7608392,0.5303869,-1.3043841,-1.03969,0.29549575,0.06588339,0.0,0.0036570106,-0.1661102,-0.0053417957,-0.13944437,0.17898631,-0.07041693,-0.06860788,-0.6219974,-0.46213102,0.12810473,-1.6841376,0.006815734,425.16885,1.9228961,0.29616684,0.39817962,0.14684254,0.1267334,inf,inf,inf,inf,1,1,1,1,2,0,2,1,3,1,1,0
40532449,33274130,34.0362177,108.7608392,0.5352547,-1.3191202,-1.0509553,0.29549575,0.06588339,0.0,-0.004717167,-0.17917377,0.0013009494,-0.13143289,0.17898631,-0.07041693,-0.06860788,-2.033253,2.228692,-2.3328078,-1.6848496,0.006815734,425.16885,1.9341614,0.28582275,0.39425787,0.14054243,0.12352133,inf,inf,inf,inf,1,1,1,1,2,0,2,1,3,1,1,0
40641672,33274130,34.0362177,108.7608392,0.5450046,-1.3404194,-1.0633993,0.29549575,0.06588339,0.0,0.05592996,-0.24126169,0.034401152,-0.09802155,0.17898631,-0.07041693,-0.06860788,-1.6841658,0.055890564,-0.55323267,-1.6849246,0.006815734,425.16885,1.9466054,0.29544085,0.3973715,0.14604755,0.1257268,inf,inf,inf,inf,1,1,1,1,2,0,2,1,3,1,1,0
40731222,33274130,34.0362177,108.7608392,0.5560137,-1.3628129,-1.0711232,0.29549575,0.06588339,0.0,0.114459224,-0.2797196,0.05488218,-0.07715066,0.17898631,-0.07041693,-0.06860788,2.813631,0.44909862,-1.0242661,-1.6856078,0.006815734,425.16885,1.9543294,0.2852091,0.39599198,0.13992321,0.12287798,inf,inf,inf,inf,1,1,1,1,2,0,2,1,3,1,1,0
40835294,33274130,34.0362177,108.7608392,0.5680182,-1.391974,-1.0840898,0.29549575,0.06588339,0.0,0.11264855,-0.31484675,0.062247537,-0.07547835,0.17898631,-0.07041693,-0.06860788,-2.1755269,1.5759478,-1.0782195,-1.6878037,0.006815734,425.16885,1.9672959,0.29389977,0.39838654,0.14497681,0.124785215,inf,inf,inf,inf,1,1,1,1,2,0,2,1,3,1,1,0
40934586,33274130,34.0362177,108.7608392,0.5808436,-1.4240198,-1.0930316,0.29549575,0.06588339,0.0,0.1304852,-0.35252562,0.06321016,-0.075647205,0.17898631,-0.07041693,-0.06860788,-0.3584706,0.9336481,-1.5285809,-1.6868722,0.006815734,425.16885,1.9762378,0.3031863,0.40089276,0.1505169,0.12673332,inf,inf,inf,inf,1,1,1,1,2,0,2,1,3,1,1,0
41033879,33274130,34.0362177,108.7608392,0.5958787,-1.4569947,-1.1015321,0.29549575,0.06588339,0.0,0.14436269,-0.4046829,0.08324105,-0.056741435,0.17898631,-0.07041693,-0.06860788,-0.5354655,-1.9300725,1.3630345,-1.6873535,0.006815734,425.16885,1.9847382,0.2930874,0.39755943,0.14473285,0.12382506,inf,inf,inf,inf,1,1,1,1,2,0,2,1,3,1,1,0
41143102,33274130,34.0362177,108.7608392,0.6131173,-1.498224,-1.1082855,0.29549575,0.06588339,0.0,0.12996814,-0.42541853,0.0882422,-0.051739987,0.17898631,-0.07041693,-0.06860788,-2.2499237,2.128883,-1.7701545,-1.6864479,0.006815734,425.16885,1.9914917,0.28477278,0.39516234,0.13998851,0.12131175,inf,inf,inf,inf,1,1,1,1,2,0,2,1,3,1,1,0
41232483,33274130,34.0362177,108.7608392,0.6271898,-1.5346583,-1.1106586,0.29549575,0.06588339,0.0,0.1332693,-0.4583782,0.09879329,-0.038990393,0.17898631,-0.07041693,-0.06860788,0.005368697,0.38789335,-1.2707179,-1.6857451,0.006815734,425.16885,1.9938648,0.29258776,0.39935654,0.14460164,0.123180196,inf,inf,inf,inf,1,1,1,1,2,0,2,1,3,1,1,0
41341688,33274130,34.0362177,108.7608392,0.6412299,-1.5843314,-1.1135787,0.29549575,0.06588339,0.0,0.09879012,-0.49995482,0.11159375,-0.02513859,0.17898631,-0.07041693,-0.06860788,-1.110777,-0.21204497,-0.6596707,-1.6861432,0.006815734,425.16885,1.9967848,0.2843086,0.3969046,0.13989747,0.12069699,inf,inf,inf,inf,1,1,1,1,2,0,2,1,3,1,1,0
41440983,33274130,34.0362177,108.7608392,0.65092134,-1.6330948,-1.116268,0.29549575,0.06588339,0.0,0.08485706,-0.5333481,0.13127062,-0.0061942874,0.17898631,-0.07041693,-0.06860788,-2.3053977,1.3250879,-1.4315197,-1.6854513,0.006815734,425.16885,1.9994742,0.2930223,0.39928627,0.14512613,0.12248683,inf,inf,inf,inf,1,1,1,1,2,0,2,1,3,1,1,0
41540477,33274130,34.0362177,108.7608392,0.6588994,-1.6853602,-1.1172537,0.29549575,0.06588339,0.0,0.07141105,-0.57169497,0.14760014,0.008932638,0.17898631,-0.07041693,-0.06860788,-0.7429242,1.0209297,-0.96967083,-1.6851068,0.006815734,425.16885,2.0004597,0.28384495,0.39609867,0.13984206,0.11979104,inf,inf,inf,inf,1,1,1,1,2,0,2,1,3,1,1,0
41639567,33274130,34.0362177,108.7608392,0.66561365,-1.7396216,-1.1198165,0.29549575,0.06588339,0.0,0.04803844,-0.60085475,0.16156092,0.01913172,0.17898631,-0.07041693,-0.06860788,-0.78871566,0.15510523,-1.3580092,-1.6858624,0.006815734,425.16885,2.0030227,0.29255953,0.3984553,0.14496797,0.12151112,inf,inf,inf,inf,1,1,1,1,2,0,2,1,3,1,1,0
41738861,33274130,34.0362177,108.7608392,0.67025584,-1.7963294,-1.1183412,0.29549575,0.06588339,0.0,0.035114136,-0.6247767,0.18627998,0.04252924,0.17898631,-0.07041693,-0.06860788,-0.5510572,-0.67377406,0.04371294,-1.686119,0.006815734,425.16885,2.0015473,0.28341305,0.3952871,0.13976693,0.11887519,inf,inf,inf,inf,1,1,1,1,2,0,2,1,3,1,1,0
41843120,33274130,34.0362177,108.7608392,0.6739999,-1.8557235,-1.1145649,0.29549575,0.06588339,0.0,0.020888273,-0.6284976,0.19828193,0.053335477,0.17898631,-0.07041693,-0.06860788,-0.030155873,-0.7081924,2.1057463,-1.6870137,0.006815734,425.16885,1.997771,0.29213,0.39760634,0.1449651,0.12055535,inf,inf,inf,inf,1,1,1,1,2,0,2,1,3,1,1,0
41932484,33274130,34.0362177,108.7608392,0.67558753,-1.9062008,-1.1117051,0.29549575,0.06588339,0.0,0.0077964677,-0.61618656,0.19705963,0.05133997,0.17898631,-0.07041693,-0.06860788,-1.1022593,0.10506828,-0.010554294,-1.6871918,0.006815734,425.16885,1.9949112,0.2821167,0.39626154,0.13912985,0.11802162,inf,inf,inf,inf,1,1,1,1,2,0,2,1,3,1,1,0
42041723,33274130,34.0362177,108.7608392,0.676443,-1.9641973,-1.113177,0.29549575,0.06588339,0.0,-0.011918001,-0.58964264,0.21090026,0.05887403,0.17898631,-0.07041693,-0.06860788,-0.52689296,0.10531673,0.964488,-1.6850902,0.006815734,425.16885,1.9963831,0.29167214,0.39934212,0.1453046,0.11996402,inf,inf,inf,inf,1,1,1,1,2,0,2,1,3,1,1,0
42136033,33274130,34.0362177,108.7608392,0.67571574,-2.0117946,-1.1110288,0.29549575,0.06588339,0.0,-0.025488073,-0.53886664,0.20759016,0.05263654,0.17898631,-0.07041693,-0.06860788,1.3635135,0.5918465,-0.33198074,-1.684046,0.006815734,425.16885,1.9942349,0.28171536,0.39545015,0.13945258,0.11717078,inf,inf,inf,inf,1,1,1,1,2,0,2,1,3,1,1,0
42235325,33274130,34.0362177,108.7608392,0.6766212,-2.0548558,-1.1051744,0.29549575,0.06588339,0.0,-0.042641964,-0.48685062,0.20474319,0.051304597,0.17898631,-0.07041693,-0.06860788,-2.1039016,-2.836026,1.5732447,-1.6830903,0.006815734,425.16885,1.9883806,0.29037946,0.39775574,0.14467828,0.11877705,inf,inf,inf,inf,1,1,1,1,2,0,2,1,3,1,1,0
42334750,33274130,34.0362177,108.7608392,0.67744225,-2.0953386,-1.0999529,0.29549575,0.06588339,0.0,-0.04527209,-0.4322597,0.18163912,0.031081244,0.17898631,-0.07041693,-0.06860788,-1.2335387,0.9159988,0.914595,-1.6821729,0.006815734,425.16885,1.9831591,0.28144658,0.3946665,0.1399131,0.11635421,inf,inf,inf,inf,1,1,1,1,2,0,2,1,3,1,1,0
42433919,33274130,34.0362177,108.7608392,0.6819,-2.134704,-1.0910399,0.29549575,0.06588339,0.0,-0.043190926,-0.40293917,0.18411286,0.04065032,0.17898631,-0.07041693,-0.06860788,2.2819998,-1.4728898,1.9425606,-1.6818268,0.006815734,425.16885,1.974246,0.29013523,0.39695334,0.14533828,0.117935866,inf,inf,inf,inf,1,1,1,1,2,0,2,1,3,1,1,0
42543134,33274130,34.0362177,108.7608392,0.68508923,-2.1769943,-1.0798537,0.29549575,0.06588339,0.0,-0.047434133,-0.3657302,0.1893926,0.053240806,0.17898631,-0.07041693,-0.06860788,-2.4445865,1.4218096,0.15119672,-1.6809721,0.006815734,425.16885,1.9630598,0.2819561,0.39460003,0.14070144,0.115714915,inf,inf,inf,inf,1,1,1,1,2,0,2,1,3,1,1,0
42632497,33274130,34.0362177,108.7608392,0.69036245,-2.2130263,-1.0679432,0.29549575,0.06588339,0.0,-0.0500898,-0.35047966,0.18946813,0.06089725,0.17898631,-0.07041693,-0.06860788,0.0335557,1.2164972,-1.2579721,-1.6807822,0.006815734,425.16885,1.9511493,0.2898142,0.3987002,0.14550179,0.117336266,inf,inf,inf,inf,1,1,1,1,2,0,2,1,3,1,1,0
42741726,33274130,34.0362177,108.7608392,0.694418,-2.2550128,-1.0538912,0.29549575,0.06588339,0.0,-0.05297903,-0.33340037,0.19255586,0.071248986,0.17898631,-0.07041693,-0.06860788,-0.0038449003,0.16000147,-0.7522818,-1.6822623,0.006815734,425.16885,1.9370973,0.28164673,0.3963292,0.14076604,0.11514408,inf,inf,inf,inf,1,1,1,1,2,0,2,1,3,1,1,0
42841087,33274130,34.0362177,108.7608392,0.6992939,-2.2909265,-1.0393504,0.29549575,0.06588339,0.0,-0.06299532,-0.3348797,0.20061183,0.08601785,0.17898631,-0.07041693,-0.06860788,-0.054567203,2.0631018,-1.987139,-1.6823547,0.006815734,425.16885,1.9225565,0.2904182,0.3986124,0.1461479,0.11665416,inf,inf,inf,inf,1,1,1,1,2,0,2,1,3,1,1,0
42940307,33274130,34.0362177,108.7608392,0.7027572,-2.3267229,-1.0258673,0.29549575,0.06588339,0.0,-0.052959237,-0.3337378,0.21149246,0.100810185,0.17898631,-0.07041693,-0.06860788,3.130596,-0.9440474,0.6874615,-1.6821802,0.006815734,425.16885,1.9090735,0.28135052,0.3955237,0.14078036,0.11427858,inf,inf,inf,inf,1,1,1,1,2,0,2,1,3,1,1,0
43039599,33274130,34.0362177,108.7608392,0.7085589,-2.3620014,-1.0124491,0.29549575,0.06588339,0.0,-0.07120421,-0.32892898,0.21049058,0.10308078,0.17898631,-0.07041693,-0.06860788,-1.5764158,-1.9042358,1.143051,-1.6828035,0.006815734,425.16885,1.8956553,0.29013225,0.3977717,0.14618522,0.115749784,inf,inf,inf,inf,1,1,1,1,2,0,2,1,3,1,1,0
43139063,33274130,34.0362177,108.7608392,0.71117616,-2.3972497,-0.9993167,0.29549575,0.06588339,0.0,-0.075500384,-0.33450553,0.21275826,0.10781119,0.17898631,-0.07041693,-0.06860788,-0.47173798,0.49467954,0.09232103,-1.6814183,0.006815734,425.16885,1.8825228,0.2810662,0.3947154,0.14088173,0.113435745,inf,inf,inf,inf,1,1,1,1,2,0,2,1,3,1,1,0
43243150,33274130,34.0362177,108.7608392,0.7127274,-2.4361408,-0.9824303,0.29549575,0.06588339,0.0,-0.069040686,-0.3327639,0.21578605,0.11500116,0.17898631,-0.07041693,-0.06860788,1.3520079,2.2426767,-2.2106388,-1.6794521,0.006815734,425.16885,1.8656363,0.2898588,0.3969276,0.14625673,0.114860855,inf,inf,inf,inf,1,1,1,1,2,0,2,1,3,1,1,0
43332542,33274130,34.0362177,108.7608392,0.7127387,-2.4686573,-0.96890616,0.29549575,0.06588339,0.0,-0.08256718,-0.33880535,0.22699974,0.12861787,0.17898631,-0.07041693,-0.06860788,-0.17057015,-1.1822933,0.87441033,-1.6782374,0.006815734,425.16885,1.8521123,0.2799075,0.3931864,0.14059758,0.112402424,inf,inf,inf,inf,1,1,1,1,2,0,2,1,3,1,1,0
43436772,33274130,34.0362177,108.7608392,0.71651435,-2.508684,-0.9503531,0.29549575,0.06588339,0.0,-0.08378831,-0.34170535,0.24047954,0.1457,0.17898631,-0.07041693,-0.06860788,-0.90423787,1.8589919,-1.2818887,-1.6759938,0.006815734,425.16885,1.8335593,0.28865835,0.39791286,0.1460747,0.114129126,inf,inf,inf,inf,1,1,1,1,2,0,2,1,3,1,1,0
43536070,33274130,34.0362177,108.7608392,0.7176585,-2.5471249,-0.9317567,0.29549575,0.06588339,0.0,-0.08885317,-0.35969353,0.25056398,0.1586387,0.17898631,-0.07041693,-0.06860788,-1.3338101,-0.45290878,-0.40275207,-1.6736364,0.006815734,425.16885,1.8149629,0.27962652,0.3948941,0.14056705,0.11187264,inf,inf,inf,inf,1,1,1,1,2,0,2,1,3,1,1,0
43635358,33274130,34.0362177,108.7608392,0.71831554,-2.5845723,-0.91866285,0.29549575,0.06588339,0.0,-0.08347368,-0.37319422,0.25014943,0.1549483,0.17898631,-0.07041693,-0.06860788,0.018456563,-1.6926802,1.0754294,-1.670848,0.006815734,425.16885,1.8018689,0.2883895,0.3970793,0.14621598,0.11327284,inf,inf,inf,inf,1,1,1,1,2,0,2,1,3,1,1,0
43734650,33274130,34.0362177,108.7608392,0.716899,-2.6243706,-0.90708375,0.29549575,0.06588339,0.0,-0.07534675,-0.41009688,0.24453372,0.14570953,0.17898631,-0.07041693,-0.06860788,-0.95315534,-0.7173265,1.0228684,-1.6683517,0.006815734,425.16885,1.7902899,0.2794102,0.39409226,0.14080049,0.11107821,inf,inf,inf,inf,1,1,1,1,2,0,2,1,3,1,1,0
43833944,33274130,34.0362177,108.7608392,0.7145293,-2.6692235,-0.8986932,0.29549575,0.06588339,0.0,-0.067654185,-0.43435648,0.22598983,0.1219832,0.17898631,-0.07041693,-0.06860788,-1.8838851,1.8270144,-2.023883,-1.6654547,0.006815734,425.16885,1.7818993,0.28819937,0.39622313,0.14622512,0.11242436,inf,inf,inf,inf,1,1,1,1,2,0,2,1,3,1,1,0
43943284,33274130,34.0362177,108.7608392,0.71174717,-2.7212467,-0.8882875,0.29549575,0.06588339,0.0,-0.05998534,-0.4649013,0.21174528,0.105366945,0.17898631,-0.07041693,-0.06860788,-1.1584206,0.77810806,-1.5406237,-1.6672174,0.006815734,425.16885,1.7714937,0.27997115,0.3939613,0.14136198,0.11046079,inf,inf,inf,inf,1,1,1,1,2,0,2,1,3,1,1,0
44032530,33274130,34.0362177,108.7608392,0.7111945,-2.765893,-0.8793062,0.29549575,0.06588339,0.0,-0.047538135,-0.4905725,0.20320149,0.096459575,0.17898631,-0.07041693,-0.06860788,3.7642088,0.20658745,-1.4396377,-1.6689442,0.006815734,425.16885,1.7625123,0.28792232,0.3979019,0.14632174,0.11189664,inf,inf,inf,inf,1,1,1,1,2,0,2,1,3,1,1,0
44141753,33274130,34.0362177,108.7608392,0.7107038,-2.821353,-0.86994547,0.29549575,0.06588339,0.0,-0.059547525,-0.5187476,0.17815882,0.071390025,0.17898631,-0.07041693,-0.06860788,-0.7385439,-2.8823357,0.698565,-1.6731108,0.006815734,425.16885,1.7531517,0.27966255,0.39561763,0.14137518,0.109958224,inf,inf,inf,inf,1,1,1,1,2,0,2,1,3,1,1,0
44231307,33274130,34.0362177,108.7608392,0.7135554,-2.8658307,-0.867684,0.29549575,0.06588339,0.0,-0.066435225,-0.51830524,0.14945973,0.03979812,0.17898631,-0.07041693,-0.06860788,-2.2118223,2.1075504,-1.1492863,-1.6754246,0.006815734,425.16885,1.7508901,0.28762418,0.39699626,0.14639705,0.1110768,inf,inf,inf,inf,1,1,1,1,2,0,2,1,3,1,1,0
44335374,33274130,34.0362177,108.7608392,0.71401477,-2.9190006,-0.8644508,0.29549575,0.06588339,0.0,-0.055960115,-0.5395659,0.12418723,0.014769499,0.17898631,-0.07041693,-0.06860788,-1.9567008,0.6721812,-0.24887402,-1.6792144,0.006815734,425.16885,1.747657,0.2785365,0.3940464,0.14108522,0.109012276,inf,inf,inf,inf,1,1,1,1,2,0,2,1,3,1,1,0
44434668,33274130,34.0362177,108.7608392,0.7152026,-2.9719067,-0.8624531,0.29549575,0.06588339,0.0,-0.07333861,-0.557736,0.09588928,-0.011172944,0.17898631,-0.07041693,-0.06860788,-1.1254694,-0.0019440367,-0.93116516,-1.6853821,0.006815734,425.16885,1.7456592,0.28738165,0.39610025,0.14706212,0.110328116,inf,inf,inf,inf,1,1,1,1,2,0,2,1,3,1,1,0
44533960,33274130,34.0362177,108.7608392,0.7122664,-3.0280373,-0.8630709,0.29549575,0.06588339,0.0,-0.097235166,-0.5870384,0.07478889,-0.030330818,0.17898631,-0.07041693,-0.06860788,0.39229307,-1.8736278,0.6951918,-1.6910735,0.006815734,425.16885,1.7462771,0.27821854,0.3956804,0.1416988,0.10860369,inf,inf,inf,inf,1,1,1,1,2,0,2,1,3,1,1,0
44643231,33274130,34.0362177,108.7608392,0.7075725,-3.0981557,-0.86982113,0.29549575,0.06588339,0.0,-0.13080321,-0.6209719,0.035251446,-0.071014576,0.17898631,-0.07041693,-0.06860788,-3.6181002,1.6167834,-2.1740248,-1.6959251,0.006815734,425.16885,1.7530272,0.28802034,0.39845228,0.14779957,0.11004771,inf,inf,inf,inf,1,1,1,1,2,0,2,1,3,1,1,0
44732619,33274130,34.0362177,108.7608392,0.7003102,-3.1582243,-0.8781635,0.29549575,0.06588339,0.0,-0.14313672,-0.6580518,0.012265614,-0.09484478,0.17898631,-0.07041693,-0.06860788,-0.81625754,-2.1731858,1.559625,-1.6982766,0.006815734,425.16885,1.7613697,0.27783826,0.39478695,0.1417081,0.10786088,inf,inf,inf,inf,1,1,1,1,2,0,2,1,3,1,1,0
44841769,33274130,34.0362177,108.7608392,0.6910603,-3.2348104,-0.8960434,0.29549575,0.06588339,0.0,-0.13663276,-0.66458434,-0.035803676,-0.14691415,0.17898631,-0.07041693,-0.06860788,4.2072883,0.13957949,-1.3527089,-1.6969833,0.006815734,425.16885,1.7792495,0.28766134,0.3975099,0.14789188,0.10928792,inf,inf,inf,inf,1,1,1,1,2,0,2,1,3,1,1,0
44941062,33274130,34.0362177,108.7608392,0.6798302,-3.303493,-0.91370976,0.29549575,0.06588339,0.0,-0.18374258,-0.65322924,-0.08115541,-0.19259353,0.17898631,-0.07041693,-0.06860788,-2.9838288,1.0394522,-0.6681912,-1.6951256,0.006815734,425.16885,1.7969159,0.2781949,0.39454964,0.14227363,0.10731326,inf,inf,inf,inf,1,1,1,1,2,0,2,1,3,1,1,0
45040358,33274130,34.0362177,108.7608392,0.6707287,-3.3702888,-0.93415195,0.29549575,0.06588339,0.0,-0.19768584,-0.63787836,-0.124587715,-0.23497477,0.17898631,-0.07041693,-0.06860788,-2.688669,1.312782,-0.98602414,-1.6902703,0.006815734,425.16885,1.817358,0.28716615,0.39651665,0.14802401,0.108540766,inf,inf,inf,inf,1,1,1,1,2,0,2,1,3,1,1,0
45139648,33274130,34.0362177,108.7608392,0.6608593,-3.4341733,-0.96048343,0.29549575,0.06588339,0.0,-0.13331619,-0.6129814,-0.17019624,-0.2806171,0.17898631,-0.07041693,-0.06860788,5.2979264,-0.9159881,-0.062166754,-1.6840676,0.006815734,425.16885,1.8436896,0.2776335,0.39611864,0.1423445,0.10688976,inf,inf,inf,inf,1,1,1,1,2,0,2,1,3,1,1,0
45238942,33274130,34.0362177,108.7608392,0.65853226,-3.4965222,-0.9914658,0.29549575,0.06588339,0.0,-0.111502394,-0.5744739,-0.22198121,-0.3322669,0.17898631,-0.07041693,-0.06860788,-0.27060646,1.9464844,-1.0484668,-1.6809139,0.006815734,425.16885,1.8746719,0.28661367,0.3980978,0.14796853,0.108087905,inf,inf,inf,inf,1,1,1,1,2,0,2,1,3,1,1,0
45343231,33274130,34.0362177,108.7608392,0.65659404,-3.5572252,-1.0284948,0.29549575,0.06588339,0.0,-0.078058176,-0.53886825,-0.27696028,-0.38675842,0.17898631,-0.07041693,-0.06860788,-2.7134705,0.32523763,-0.485127,-1.6775092,0.006815734,425.16885,1.911701,0.27708757,0.3951618,0.14241774,0.10618546,inf,inf,inf,inf,1,1,1,1,2,0,2,1,3,1,1,0
45432563,33274130,34.0362177,108.7608392,0.66137546,-3.6059608,-1.0680807,0.29549575,0.06588339,0.0,-0.056287147,-0.51245326,-0.3130676,-0.42582843,0.17898631,-0.07041693,-0.06860788,0.20195757,-0.42341924,0.25613928,-1.6742024,0.006815734,425.16885,1.9512868,0.28515127,0.39639872,0.1475384,0.10719426,inf,inf,inf,inf,1,1,1,1,2,0,2,1,3,1,1,0
45541919,33274130,34.0362177,108.7608392,0.66966987,-3.6652277,-1.117341,0.29549575,0.06588339,0.0,0.015651241,-0.47624633,-0.33934203,-0.45257193,0.17898631,-0.07041693,-0.06860788,-1.529117,1.6999873,-1.9566576,-1.6692051,0.006815734,425.16885,2.0005472,0.27663955,0.3942248,0.14292051,0.10555324,inf,inf,inf,inf,1,1,1,1,2,0,2,1,3,1,1,0
45636114,33274130,34.0362177,108.7608392,0.6812774,-3.7196438,-1.1585993,0.29549575,0.06588339,0.0,0.01748132,-0.4579975,-0.3604918,-0.47107008,0.17898631,-0.07041693,-0.06860788,-2.7573538,1.1965885,0.45905095,-1.6667919,0.006815734,425.16885,2.0418053,0.28473163,0.39543432,0.14784676,0.106523186,inf,inf,inf,inf,1,1,1,1,2,0,2,1,3,1,1,0
45735407,33274130,34.0362177,108.7608392,0.69173294,-3.7727535,-1.2050358,0.29549575,0.06588339,0.0,0.037698567,-0.42704064,-0.38164914,-0.49013165,0.17898631,-0.07041693,-0.06860788,0.98405296,1.844062,-1.692166,-1.6618869,0.006815734,425.16885,2.088242,0.275259,0.39510426,0.14200504,0.10496783,inf,inf,inf,inf,1,1,1,1,2,0,2,1,3,1,1,0
45834834,33274130,34.0362177,108.7608392,0.70290405,-3.823424,-1.2509073,0.29549575,0.06588339,0.0,0.047742,-0.40967795,-0.39574632,-0.500157,0.17898631,-0.07041693,-0.06860788,1.8557473,1.2127014,-1.2066193,-1.6584165,0.006815734,425.16885,2.1341133,0.28422615,0.39702418,0.1477335,0.106124066,inf,inf,inf,inf,1,1,1,1,2,0,2,1,3,1,1,0
45933993,33274130,34.0362177,108.7608392,0.71150696,-3.8698375,-1.2960367,0.29549575,0.06588339,0.0,0.040090352,-0.39153364,-0.36542434,-0.46624005,0.17898631,-0.07041693,-0.06860788,1.6806633,-0.19999409,0.6502264,-1.6559995,0.006815734,425.16885,2.1792428,0.27475804,0.39419177,0.1418156,0.10430968,inf,inf,inf,inf,1,1,1,1,2,0,2,1,3,1,1,0
46043216,33274130,34.0362177,108.7608392,0.71688765,-3.916463,-1.3487116,0.29549575,0.06588339,0.0,0.04229814,-0.36353204,-0.27810094,-0.38500774,0.17898631,-0.07041693,-0.06860788,1.2904339,1.5362344,-0.55809486,-1.6539402,0.006815734,425.16885,2.2319179,0.28464946,0.3967748,0.14762935,0.10557973,inf,inf,inf,inf,1,1,1,1,2,0,2,1,3,1,1,0
46132580,33274130,34.0362177,108.7608392,0.72111905,-3.9509542,-1.3826998,0.29549575,0.06588339,0.0,0.041269537,-0.3469631,-0.1896463,-0.2998122,0.17898631,-0.07041693,-0.06860788,-2.4360156,0.53757674,0.21694382,-1.6542956,0.006815734,425.16885,2.2659059,0.27430874,0.39327392,0.14077082,0.10358361,inf,inf,inf,inf,1,1,1,1,2,0,2,1,3,1,1,0
46241807,33274130,34.0362177,108.7608392,0.732632,-3.9862292,-1.4230516,0.29549575,0.06588339,0.0,0.045043115,-0.31815156,-0.09470055,-0.21646683,0.17898631,-0.07041693,-0.06860788,3.1052477,-1.9240748,3.4387546,-1.6543328,0.006815734,425.16885,2.3062577,0.28415677,0.3958128,0.14569518,0.10475867,inf,inf,inf,inf,1,1,1,1,2,0,2,1,3,1,1,0
46341091,33274130,34.0362177,108.7608392,0.739877,-4.0158267,-1.4476374,0.29549575,0.06588339,0.0,0.04172954,-0.2974632,-0.032582533,-0.15895806,0.17898631,-0.07041693,-0.06860788,5.702225,-1.0137833,1.840102,-1.6533636,0.006815734,425.16885,2.3308434,0.27471566,0.39303327,0.13935955,0.10294999,inf,inf,inf,inf,1,1,1,1,2,0,2,1,3,1,1,0
46435423,33274130,34.0362177,108.7608392,0.74450606,-4.042748,-1.462838,0.29549575,0.06588339,0.0,0.013702098,-0.26780656,0.051696476,-0.07832876,0.17898631,-0.07041693,-0.06860788,0.664637,0.82780296,1.0271175,-1.6538696,0.006815734,425.16885,2.346044,0.28272083,0.39416182,0.14350149,0.10380463,inf,inf,inf,inf,1,1,1,1,2,0,2,1,3,1,1,0
46534717,33274130,34.0362177,108.7608392,0.7479883,-4.0685735,-1.4656744,0.29549575,0.06588339,0.0,0.004805486,-0.2617697,0.1554169,0.026279448,0.17898631,-0.07041693,-0.06860788,-0.8271416,-0.30726776,0.7200224,-1.6529404,0.006815734,425.16885,2.3488805,0.27336442,0.39391628,0.1375639,0.10233539,inf,inf,inf,inf,1,1,1,1,2,0,2,1,3,1,1,0
46634113,33274130,34.0362177,108.7608392,0.75760156,-4.0882497,-1.4553219,0.29549575,0.06588339,0.0,-0.007995918,-0.25274393,0.25768098,0.1322127,0.17898631,-0.07041693,-0.06860788,-0.84905833,-0.40907937,-0.15030117,-1.6518801,0.006815734,425.16885,2.3385282,0.2821891,0.39572617,0.14225401,0.103346735,inf,inf,inf,inf,1,1,1,1,2,0,2,1,3,1,1,0
46743232,33274130,34.0362177,108.7608392,0.76410234,-4.112302,-1.4287008,0.29549575,0.06588339,0.0,-0.00453081,-0.25901008,0.37780625,0.2593187,0.17898631,-0.07041693,-0.06860788,3.998699,-1.5678511,3.8028822,-1.6506705,0.006815734,425.16885,2.3119068,0.273868,0.39367276,0.13679172,0.10176593,inf,inf,inf,inf,1,1,1,1,2,0,2,1,3,1,1,0
46832596,33274130,34.0362177,108.7608392,0.76811063,-4.1370664,-1.3955288,0.29549575,0.06588339,0.0,-0.031950366,-0.27649516,0.45528838,0.34414124,0.17898631,-0.07041693,-0.06860788,-0.55381745,-1.3246568,0.42880893,-1.6501049,0.006815734,425.16885,2.278735,0.28179502,0.39477226,0.14071108,0.10258595,inf,inf,inf,inf,1,1,1,1,2,0,2,1,3,1,1,0
46936854,33274130,34.0362177,108.7608392,0.7697811,-4.1670265,-1.3472849,0.29549575,0.06588339,0.0,-0.04733228,-0.29466924,0.54475677,0.4407701,0.17898631,-0.07041693,-0.06860788,-1.2286403,1.2524644,-0.8757795,-1.6496384,0.006815734,425.16885,2.2304912,0.2725409,0.39208615,0.1350435,0.10090028,inf,inf,inf,inf,1,1,1,1,2,0,2,1,3,1,1,0
47036148,33274130,34.0362177,108.7608392,0.77515686,-4.1897187,-1.2942523,0.29549575,0.06588339,0.0,-0.041215718,-0.31278187,0.64296925,0.5435954,0.17898631,-0.07041693,-0.06860788,-1.222352,0.3553055,1.4073892,-1.6505318,0.006815734,425.16885,2.1774583,0.28126925,0.3938188,0.1394607,0.10186145,inf,inf,inf,inf,1,1,1,1,2,0,2,1,3,1,1,0
47135495,33274130,34.0362177,108.7608392,0.77750415,-4.216722,-1.2330592,0.29549575,0.06588339,0.0,-0.05187269,-0.3309279,0.66654295,0.5729484,0.17898631,-0.07041693,-0.06860788,2.480112,-1.2138851,0.79744893,-1.6501863,0.006815734,425.16885,2.1162653,0.27214518,0.3911648,0.13434118,0.10024625,inf,inf,inf,inf,1,1,1,1,2,0,2,1,3,1,1,0
47234736,33274130,34.0362177,108.7608392,0.7779105,-4.249414,-1.1700894,0.29549575,0.06588339,0.0,-0.06926041,-0.35827014,0.6527751,0.5661151,0.17898631,-0.07041693,-0.06860788,-0.37780267,-1.6242977,0.40622374,-1.6480483,0.006815734,425.16885,2.0532956,0.28085026,0.3928711,0.1388735,0.10120539,inf,inf,inf,inf,1,1,1,1,2,0,2,1,3,1,1,0
47334026,33274130,34.0362177,108.7608392,0.7749996,-4.2847934,-1.1089104,0.29549575,0.06588339,0.0,-0.07308868,-0.36232224,0.62164235,0.5412374,0.17898631,-0.07041693,-0.06860788,-1.0639147,0.34764647,-0.4397524,-1.6435869,0.006815734,425.16885,1.9921166,0.271753,0.39271608,0.1340488,0.09991971,inf,inf,inf,inf,1,1,1,1,2,0,2,1,3,1,1,0
47443411,33274130,34.0362177,108.7608392,0.76662105,-4.326193,-1.0450488,0.29549575,0.06588339,0.0,-0.08970069,-0.3619723,0.5575435,0.4854933,0.17898631,-0.07041693,-0.06860788,-0.068672754,-1.7105894,1.4373473,-1.6412431,0.006815734,425.16885,1.928255,0.28136325,0.3950964,0.13963023,0.10106602,inf,inf,inf,inf,1,1,1,1,2,0,2,1,3,1,1,0
47537578,33274130,34.0362177,108.7608392,0.75787675,-4.359567,-1.0012482,0.29549575,0.06588339,0.0,-0.109043494,-0.35253456,0.48745817,0.41632864,0.17898631,-0.07041693,-0.06860788,-0.39366797,-2.484454,1.0748419,-1.6380131,0.006815734,425.16885,1.8844544,0.27133858,0.3918011,0.1345369,0.09939236,inf,inf,inf,inf,1,1,1,1,2,0,2,1,3,1,1,0
47636871,33274130,34.0362177,108.7608392,0.7466762,-4.3884864,-0.9731946,0.29549575,0.06588339,0.0,-0.12146383,-0.32733968,0.40806445,0.3275932,0.17898631,-0.07041693,-0.06860788,-0.38914043,2.0491507,-0.9539971,-1.6350633,0.006815734,425.16885,1.8564007,0.28007755,0.39348045,0.14024492,0.1004194,inf,inf,inf,inf,1,1,1,1,2,0,2,1,3,1,1,0
47736164,33274130,34.0362177,108.7608392,0.7363195,-4.417996,-0.9513736,0.29549575,0.06588339,0.0,-0.1355772,-0.32822588,0.33550656,0.248023,0.17898631,-0.07041693,-0.06860788,-0.8281151,-1.1768166,-0.70314765,-1.6361579,0.006815734,425.16885,1.8345797,0.27092305,0.39089724,0.13560086,0.0989266,inf,inf,inf,inf,1,1,1,1,2,0,2,1,3,1,1,0
47835457,33274130,34.0362177,108.7608392,0.73216337,-4.449905,-0.9369628,0.29549575,0.06588339,0.0,-0.1305277,-0.33354065,0.27588338,0.18151341,0.17898631,-0.07041693,-0.06860788,0.62875515,-0.13036302,-1.2308091,-1.6377101,0.006815734,425.16885,1.820169,0.27971402,0.3925601,0.14107336,0.09992162,inf,inf,inf,inf,1,1,1,1,2,0,2,1,3,1,1,0
47934750,33274130,34.0362177,108.7608392,0.725869,-4.4834394,-0.92513317,0.29549575,0.06588339,0.0,-0.13219534,-0.3438029,0.22007634,0.12268983,0.17898631,-0.07041693,-0.06860788,0.16369526,0.118193425,-0.4039492,-1.640806,0.006815734,425.16885,1.8083394,0.27056432,0.38999847,0.13629523,0.098448865,inf,inf,inf,inf,1,1,1,1,2,0,2,1,3,1,1,0
48034043,33274130,34.0362177,108.7608392,0.72060615,-4.5219564,-0.91893643,0.29549575,0.06588339,0.0,-0.14750129,-0.38164374,0.16288479,0.062929444,0.17898631,-0.07041693,-0.06860788,-0.7619365,1.0394803,-1.3898555,-1.6447871,0.006815734,425.16885,1.8021426,0.27938902,0.39410982,0.141722,0.09970638,inf,inf,inf,inf,1,1,1,1,2,0,2,1,3,1,1,0
48143265,33274130,34.0362177,108.7608392,0.7147215,-4.5652885,-0.9149863,0.29549575,0.06588339,0.0,-0.1448178,-0.4176703,0.10773707,0.008135368,0.17898631,-0.07041693,-0.06860788,-0.024519982,0.3899465,-2.2079496,-1.6471888,0.006815734,425.16885,1.7981925,0.27109873,0.39219013,0.13735025,0.098399326,inf,inf,inf,inf,1,1,1,1,2,0,2,1,3,1,1,0
48232710,33274130,34.0362177,108.7608392,0.7128743,-4.5984635,-0.91377044,0.29549575,0.06588339,0.0,-0.16277415,-0.44432363,0.06788096,-0.028638296,0.17898631,-0.07041693,-0.06860788,-1.962377,-1.2489041,1.0947999,-1.6493841,0.006815734,425.16885,1.7969766,0.2790929,0.3931789,0.14207627,0.09920266,inf,inf,inf,inf,1,1,1,1,2,0,2,1,3,1,1,0
48341852,33274130,34.0362177,108.7608392,0.70725405,-4.6450334,-0.91415274,0.29549575,0.06588339,0.0,-0.16992524,-0.47319248,0.0006989323,-0.08885338,0.17898631,-0.07041693,-0.06860788,0.8105624,0.37387282,-1.309047,-1.6499871,0.006815734,425.16885,1.7973589,0.270772,0.39127776,0.13761693,0.0979144,inf,inf,inf,inf,1,1,1,1,2,0,2,1,3,1,1,0
48441145,33274130,34.0362177,108.7608392,0.69995207,-4.6936746,-0.91795665,0.29549575,0.06588339,0.0,-0.19173725,-0.50069046,-0.049723644,-0.1316524,0.17898631,-0.07041693,-0.06860788,-0.72545326,-0.0017664293,-0.9104731,-1.6490812,0.006815734,425.16885,1.8011627,0.27970475,0.3929019,0.14292073,0.098859824,inf,inf,inf,inf,1,1,1,1,2,0,2,1,3,1,1,0
48540439,33274130,34.0362177,108.7608392,0.69120246,-4.7454834,-0.925697,0.29549575,0.06588339,0.0,-0.18995878,-0.51790416,-0.08767146,-0.16253999,0.17898631,-0.07041693,-0.06860788,0.20939678,-1.5364324,1.34973,-1.6471791,0.006815734,425.16885,1.8089032,0.27043533,0.39037666,0.137826,0.09744097,inf,inf,inf,inf,1,1,1,1,2,0,2,1,3,1,1,0
48639732,33274130,34.0362177,108.7608392,0.68361324,-4.8008914,-0.93711746,0.29549575,0.06588339,0.0,-0.20818053,-0.5281056,-0.1370161,-0.20492722,0.17898631,-0.07041693,-0.06860788,-3.6362662,1.5219562,-1.921845,-1.643783,0.006815734,425.16885,1.8203236,0.27938685,0.3919742,0.14310707,0.09837383,inf,inf,inf,inf,1,1,1,1,2,0,2,1,3,1,1,0
48739025,33274130,34.0362177,108.7608392,0.67209744,-4.856436,-0.95309055,0.29549575,0.06588339,0.0,-0.1784978,-0.5458552,-0.1665371,-0.2289223,0.17898631,-0.07041693,-0.06860788,5.706654,-0.83540064,-0.7157962,-1.6375384,0.006815734,425.16885,1.8362967,0.2699652,0.38946524,0.13778324,0.096958354,inf,inf,inf,inf,1,1,1,1,2,0,2,1,3,1,1,0
48843287,33274130,34.0362177,108.7608392,0.66081804,-4.9162755,-0.974463,0.29549575,0.06588339,0.0,-0.18995541,-0.57642543,-0.20425081,-0.26255542,0.17898631,-0.07041693,-0.06860788,-0.75144106,-0.9573118,0.58544314,-1.6337876,0.006815734,425.16885,1.8576691,0.27891663,0.39349928,0.14300911,0.09815436,inf,inf,inf,inf,1,1,1,1,2,0,2,1,3,1,1,0
48932648,33274130,34.0362177,108.7608392,0.6498058,-4.9686356,-0.99830604,0.29549575,0.06588339,0.0,-0.16501275,-0.58485156,-0.24164699,-0.2986516,0.17898631,-0.07041693,-0.06860788,3.842874,-1.73838,0.71161586,-1.6294197,0.006815734,425.16885,1.8815122,0.26866597,0.39034033,0.13715054,0.096601725,inf,inf,inf,inf,1,1,1,1,2,0,2,1,3,1,1,0
49041899,33274130,34.0362177,108.7608392,0.64069307,-5.0379286,-1.0293392,0.29549575,0.06588339,0.0,-0.13198586,-0.6239719,-0.27203035,-0.32587337,0.17898631,-0.07041693,-0.06860788,-1.0010532,0.93104476,-1.5274218,-1.6262891,0.006815734,425.16885,1.9125453,0.27848265,0.39255506,0.14313418,0.09768217,inf,inf,inf,inf,1,1,1,1,2,0,2,1,3,1,1,0
49141162,33274130,34.0362177,108.7608392,0.63612044,-5.104748,-1.0614376,0.29549575,0.06588339,0.0,-0.093505785,-0.6648224,-0.27916104,-0.33241808,0.17898631,-0.07041693,-0.06860788,-0.004759501,-1.5534432,1.3564028,-1.6249721,0.006815734,425.16885,1.9446437,0.26921254,0.39008063,0.13786374,0.09631217,inf,inf,inf,inf,1,1,1,1,2,0,2,1,3,1,1,0
49240455,33274130,34.0362177,108.7608392,0.63693035,-5.174816,-1.0954165,0.29549575,0.06588339,0.0,-0.0702165,-0.674581,-0.3072795,-0.36011514,0.17898631,-0.07041693,-0.06860788,2.7995765,0.6635478,-0.9665055,-1.6222674,0.006815734,425.16885,1.9786227,0.27817672,0.39163595,0.14292905,0.097206,inf,inf,inf,inf,1,1,1,1,2,0,2,1,3,1,1,0
49339968,33274130,34.0362177,108.7608392,0.6374478,-5.247115,-1.130792,0.29549575,0.06588339,0.0,-0.04978014,-0.69134474,-0.3288663,-0.38075584,0.17898631,-0.07041693,-0.06860788,-0.6808199,-0.54450357,-0.2992391,-1.6214291,0.006815734,425.16885,2.013998,0.26879355,0.38917714,0.13740562,0.09583605,inf,inf,inf,inf,1,1,1,1,2,0,2,1,3,1,1,0
49434076,33274130,34.0362177,108.7608392,0.6370517,-5.3220143,-1.167501,0.29549575,0.06588339,0.0,-0.034441177,-0.6984949,-0.3423774,-0.39524707,0.17898631,-0.07041693,-0.06860788,-1.5596732,1.3526597,-1.7200277,-1.6193044,0.006815734,425.16885,2.050707,0.27682018,0.3925065,0.14196718,0.09685399,inf,inf,inf,inf,1,1,1,1,2,0,2,1,3,1,1,0
49543299,33274130,34.0362177,108.7608392,0.63691664,-5.406647,-1.2131559,0.29549575,0.06588339,0.0,-0.02952622,-0.69889075,-0.36614016,-0.4203879,0.17898631,-0.07041693,-0.06860788,1.0243716,0.96110994,-2.034994,-1.618704,0.006815734,425.16885,2.096362,0.26847312,0.38827994,0.13733122,0.09539933,inf,inf,inf,inf,1,1,1,1,2,0,2,1,3,1,1,0
49632670,33274130,34.0362177,108.7608392,0.64104503,-5.4760127,-1.2506526,0.29549575,0.06588339,0.0,0.0076046386,-0.73501694,-0.36966935,-0.42394075,0.17898631,-0.07041693,-0.06860788,3.179177,-1.096381,0.5928724,-1.6197934,0.006815734,425.16885,2.1338587,0.27650496,0.39158642,0.14182782,0.096399724,inf,inf,inf,inf,1,1,1,1,2,0,2,1,3,1,1,0
49741886,33274130,34.0362177,108.7608392,0.64396715,-5.5611463,-1.2964206,0.29549575,0.06588339,0.0,-0.026064493,-0.7208992,-0.39832893,-0.45096192,0.17898631,-0.07041693,-0.06860788,-0.7509062,-0.9075184,0.17353162,-1.6197586,0.006815734,425.16885,2.1796267,0.26808792,0.38979962,0.13682607,0.09519824,inf,inf,inf,inf,1,1,1,1,2,0,2,1,3,1,1,0
49841186,33274130,34.0362177,108.7608392,0.64602923,-5.643231,-1.3407499,0.29549575,0.06588339,0.0,0.037706792,-0.7803992,-0.4029335,-0.45497352,0.17898631,-0.07041693,-0.06860788,-1.6433265,-0.12093535,-0.62505174,-1.6192232,0.006815734,425.16885,2.223956,0.27702162,0.3913116,0.14175339,0.09606616,inf,inf,inf,inf,1,1,1,1,2,0,2,1,3,1,1,0
49935507,33274130,34.0362177,108.7608392,0.6512672,-5.7232156,-1.3830352,0.29549575,0.06588339,0.0,0.029239656,-0.7986077,-0.41256428,-0.4634164,0.17898631,-0.07041693,-0.06860788,-2.9685147,-0.5896429,0.94802433,-1.6194432,0.006815734,425.16885,2.2662413,0.2668206,0.3882729,0.13583973,0.09461425,inf,inf,inf,inf,1,1,1,1,2,0,2,1,3,1,1,0
50034801,33274130,34.0362177,108.7608392,0.66595536,-5.809587,-1.428791,0.29549575,0.06588339,0.0,0.051385365,-0.8003361,-0.43403617,-0.48336533,0.17898631,-0.07041693,-0.06860788,0.50247324,0.9743232,-1.2239678,-1.6177988,0.006815734,425.16885,2.3119972,0.27567768,0.3897496,0.14072596,0.09546661,inf,inf,inf,inf,1,1,1,1,2,0,2,1,3,1,1,0
50134307,33274130,34.0362177,108.7608392,0.6775539,-5.8997173,-1.477062,0.29549575,0.06588339,0.0,0.062159456,-0.8207662,-0.44837356,-0.4972782,0.17898631,-0.07041693,-0.06860788,1.5317711,-0.41692662,-0.26627055,-1.6187243,0.006815734,425.16885,2.360268,0.26648107,0.38739118,0.13569279,0.094202906,inf,inf,inf,inf,1,1,1,1,2,0,2,1,3,1,1,0
50238352,33274130,34.0362177,108.7608392,0.6810105,-6.0052905,-1.5324421,0.29549575,0.06588339,0.0,0.054130584,-0.8067938,-0.47193068,-0.52326244,0.17898631,-0.07041693,-0.06860788,-0.76447815,1.4407924,-1.7062558,-1.6200163,0.006815734,425.16885,2.4156482,0.27533984,0.3912742,0.14060171,0.09531718,inf,inf,inf,inf,1,1,1,1,2,0,2,1,3,1,1,0
50337645,33274130,34.0362177,108.7608392,0.68503886,-6.10087,-1.5828544,0.29549575,0.06588339,0.0,0.04975803,-0.7990287,-0.44860545,-0.4992368,0.17898631,-0.07041693,-0.06860788,1.2228128,-0.78734374,0.6198267,-1.6210043,0.006815734,425.16885,2.4660606,0.2661141,0.3889051,0.13560368,0.094060525,inf,inf,inf,inf,1,1,1,1,2,0,2,1,3,1,1,0
50436940,33274130,34.0362177,108.7608392,0.6929057,-6.1922793,-1.6306447,0.29549575,0.06588339,0.0,0.054408852,-0.77903783,-0.4010564,-0.4520509,0.17898631,-0.07041693,-0.06860788,2.2634249,0.09633056,0.20033073,-1.6230295,0.006815734,425.16885,2.5138507,0.27497387,0.39037707,0.1404362,0.09490819,inf,inf,inf,inf,1,1,1,1,2,0,2,1,3,1,1,0
50536232,33274130,34.0362177,108.7608392,0.699418,-6.2785516,-1.6689373,0.29549575,0.06588339,0.0,0.022621829,-0.76018065,-0.354056,-0.40071896,0.17898631,-0.07041693,-0.06860788,-0.8125902,-1.4396008,0.9189585,-1.6260629,0.006815734,425.16885,2.5521436,0.2657192,0.38804293,0.13487327,0.09362659,inf,inf,inf,inf,1,1,1,1,2,0,2,1,3,1,1,0
50635520,33274130,34.0362177,108.7608392,0.70798784,-6.36136,-1.6954919,0.29549575,0.06588339,0.0,0.018810347,-0.72823,-0.30765134,-0.3438203,0.17898631,-0.07041693,-0.06860788,-1.851318,0.49329332,-0.5517132,-1.627634,0.006815734,425.16885,2.5786982,0.27454534,0.38948843,0.13933541,0.09443811,inf,inf,inf,inf,1,1,1,1,2,0,2,1,3,1,1,0
50734817,33274130,34.0362177,108.7608392,0.7144625,-6.4382496,-1.7189492,0.29549575,0.06588339,0.0,0.025662705,-0.7040668,-0.25560808,-0.28416407,0.17898631,-0.07041693,-0.06860788,-2.080591,1.0808591,-0.19775485,-1.6281877,0.006815734,425.16885,2.6021552,0.26521164,0.38716847,0.13373709,0.093161255,inf,inf,inf,inf,1,1,1,1,2,0,2,1,3,1,1,0
50834111,33274130,34.0362177,108.7608392,0.72512245,-6.505435,-1.7335159,0.29549575,0.06588339,0.0,0.005649998,-0.670004,-0.20335174,-0.2216102,0.17898631,-0.07041693,-0.06860788,-2.8674471,1.5910928,-0.36416024,-1.6293395,0.006815734,425.16885,2.616722,0.27398744,0.39099634,0.13818891,0.09422338,inf,inf,inf,inf,1,1,1,1,2,0,2,1,3,1,1,0
50943452,33274130,34.0362177,108.7608392,0.73322594,-6.574681,-1.7490737,0.29549575,0.06588339,0.0,0.004623551,-0.6432347,-0.14993393,-0.16343553,0.17898631,-0.07041693,-0.06860788,-0.26321542,-0.031733546,1.3502084,-1.6294042,0.006815734,425.16885,2.6322799,0.26552898,0.38927048,0.1332617,0.09309495,inf,inf,inf,inf,1,1,1,1,2,0,2,1,3,1,1,0
51032694,33274130,34.0362177,108.7608392,0.7389076,-6.6262217,-1.763409,0.29549575,0.06588339,0.0,-0.0004382834,-0.6195168,-0.10613212,-0.12179882,0.17898631,-0.07041693,-0.06860788,-2.02816,0.025489567,1.141396,-1.6294979,0.006815734,425.16885,2.646615,0.27340856,0.39005527,0.13722603,0.09376132,inf,inf,inf,inf,1,1,1,1,2,0,2,1,3,1,1,0
51141930,33274130,34.0362177,108.7608392,0.743422,-6.686273,-1.7754139,0.29549575,0.06588339,0.0,-0.0068237036,-0.59254944,-0.050893977,-0.06836638,0.17898631,-0.07041693,-0.06860788,-1.175259,-0.396319,1.9542451,-1.6294649,0.006815734,425.16885,2.6586199,0.26497427,0.38834617,0.13244279,0.09265283,inf,inf,inf,inf,1,1,1,1,2,0,2,1,3,1,1,0
51241213,33274130,34.0362177,108.7608392,0.7490639,-6.736685,-1.7790171,0.29549575,0.06588339,0.0,-0.014736829,-0.5739228,0.0017307079,-0.015181269,0.17898631,-0.07041693,-0.06860788,-1.0874623,0.33087623,0.66687787,-1.6284347,0.006815734,425.16885,2.6622233,0.27371293,0.38972393,0.13687116,0.093442485,inf,inf,inf,inf,1,1,1,1,2,0,2,1,3,1,1,0
51340508,33274130,34.0362177,108.7608392,0.75289017,-6.7868237,-1.7761558,0.29549575,0.06588339,0.0,-0.0391251,-0.55995566,0.074196845,0.057575684,0.17898631,-0.07041693,-0.06860788,-1.3969101,-0.39594397,1.0123352,-1.6276017,0.006815734,425.16885,2.6593618,0.26440707,0.387417,0.13170192,0.09222139,inf,inf,inf,inf,1,1,1,1,2,0,2,1,3,1,1,0
51439799,33274130,34.0362177,108.7608392,0.76033133,-6.8363433,-1.7662323,0.29549575,0.06588339,0.0,-0.036353827,-0.53853464,0.150751,0.13396384,0.17898631,-0.07041693,-0.06860788,0.82565427,1.217293,0.08202903,-1.6268482,0.006815734,425.16885,2.6494384,0.27310443,0.3887696,0.136058,0.092998095,inf,inf,inf,inf,1,1,1,1,2,0,2,1,3,1,1,0
51534185,33274130,34.0362177,108.7608392,0.7633329,-6.8824863,-1.7503082,0.29549575,0.06588339,0.0,-0.051300216,-0.53110117,0.22669967,0.20899327,0.17898631,-0.07041693,-0.06860788,1.8222302,-0.82794124,1.1567101,-1.627441,0.006815734,425.16885,2.6335144,0.26299578,0.38825876,0.13045843,0.09190931,inf,inf,inf,inf,1,1,1,1,2,0,2,1,3,1,1,0
51643350,33274130,34.0362177,108.7608392,0.7648649,-6.934175,-1.7251246,0.29549575,0.06588339,0.0,-0.07920541,-0.54450977,0.30941316,0.28919053,0.17898631,-0.07041693,-0.06860788,0.6003432,-1.358948,0.80557805,-1.6258402,0.006815734,425.16885,2.6083307,0.2724817,0.3902291,0.13518548,0.092813626,inf,inf,inf,inf,1,1,1,1,2,0,2,1,3,1,1,0
51732743,33274130,34.0362177,108.7608392,0.76377434,-6.97761,-1.6992621,0.29549575,0.06588339,0.0,-0.0961858,-0.5432567,0.36887074,0.3456496,0.17898631,-0.07041693,-0.06860788,-1.3238128,-0.9165687,1.9183878,-1.6244458,0.006815734,425.16885,2.5824683,0.26245505,0.38734013,0.12998085,0.09151266,inf,inf,inf,inf,1,1,1,1,2,0,2,1,3,1,1,0
51841937,33274130,34.0362177,108.7608392,0.7627612,-7.0283613,-1.6647663,0.29549575,0.06588339,0.0,-0.11334003,-0.55496377,0.42648166,0.39653555,0.17898631,-0.07041693,-0.06860788,0.34281883,0.4132219,-0.4444247,-1.6195726,0.006815734,425.16885,2.5479724,0.27191123,0.3892833,0.13469307,0.0924063,inf,inf,inf,inf,1,1,1,1,2,0,2,1,3,1,1,0
51941230,33274130,34.0362177,108.7608392,0.76068306,-7.0780997,-1.6277384,0.29549575,0.06588339,0.0,-0.09909737,-0.58759135,0.47880417,0.44369957,0.17898631,-0.07041693,-0.06860788,-0.08417046,-0.63020116,0.49029052,-1.6152275,0.006815734,425.16885,2.5109444,0.2627769,0.38702843,0.12984529,0.091241054,inf,inf,inf,inf,1,1,1,1,2,0,2,1,3,1,1,0
52040523,33274130,34.0362177,108.7608392,0.7612317,-7.131526,-1.5846089,0.29549575,0.06588339,0.0,-0.11091705,-0.6309746,0.52002066,0.48229015,0.17898631,-0.07041693,-0.06860788,0.030396082,-1.8917418,1.3222139,-1.6104871,0.006815734,425.16885,2.467815,0.2713731,0.38834134,0.13422386,0.092010096,inf,inf,inf,inf,1,1,1,1,2,0,2,1,3,1,1,0
52139816,33274130,34.0362177,108.7608392,0.758462,-7.1890116,-1.5345925,0.29549575,0.06588339,0.0,-0.12321476,-0.64265585,0.5519111,0.5150112,0.17898631,-0.07041693,-0.06860788,0.5904496,-1.7574936,0.74922216,-1.6075007,0.006815734,425.16885,2.4177985,0.26225036,0.3860984,0.12954232,0.090865545,inf,inf,inf,inf,1,1,1,1,2,0,2,1,3,1,1,0
52239110,33274130,34.0362177,108.7608392,0.7564232,-7.250203,-1.4781117,0.29549575,0.06588339,0.0,-0.10792922,-0.6668513,0.57665694,0.54360867,0.17898631,-0.07041693,-0.06860788,1.4365168,-0.11008488,-0.41109213,-1.607396,0.006815734,425.16885,2.3613179,0.27083045,0.38977695,0.1339723,0.09188073,inf,inf,inf,inf,1,1,1,1,2,0,2,1,3,1,1,0
52343368,33274130,34.0362177,108.7608392,0.75145423,-7.319014,-1.4172564,0.29549575,0.06588339,0.0,-0.1223353,-0.6927172,0.59206116,0.5618073,0.17898631,-0.07041693,-0.06860788,1.213543,1.6570481,-1.7927426,-1.6098399,0.006815734,425.16885,2.3004625,0.26166353,0.38751578,0.12930961,0.090746194,inf,inf,inf,inf,1,1,1,1,2,0,2,1,3,1,1,0
52432731,33274130,34.0362177,108.7608392,0.74910337,-7.382258,-1.364761,0.29549575,0.06588339,0.0,-0.12579706,-0.71217394,0.60139686,0.5727767,0.17898631,-0.07041693,-0.06860788,2.2300377,-0.44881642,0.2093667,-1.613381,0.006815734,425.16885,2.2479672,0.2693466,0.38818637,0.13338536,0.09138673,inf,inf,inf,inf,1,1,1,1,2,0,2,1,3,1,1,0
52541991,33274130,34.0362177,108.7608392,0.7456494,-7.46546,-1.3026683,0.29549575,0.06588339,0.0,-0.1319946,-0.74240744,0.58950394,0.56066924,0.17898631,-0.07041693,-0.06860788,-0.357621,-0.20866191,-1.6838951,-1.6188861,0.006815734,425.16885,2.1858745,0.2611949,0.38656494,0.12953576,0.090415746,inf,inf,inf,inf,1,1,1,1,2,0,2,1,3,1,1,0
52636282,33274130,34.0362177,108.7608392,0.74545276,-7.5460167,-1.2524095,0.29549575,0.06588339,0.0,-0.1604167,-0.77115005,0.56391376,0.5329259,0.17898631,-0.07041693,-0.06860788,-0.3262281,0.8362188,-1.2620636,-1.6223099,0.006815734,425.16885,2.1356156,0.26889023,0.3872278,0.13374378,0.09106343,inf,inf,inf,inf,1,1,1,1,2,0,2,1,3,1,1,0
52735576,33274130,34.0362177,108.7608392,0.7426285,-7.6314664,-1.2017524,0.29549575,0.06588339,0.0,-0.1494163,-0.79825443,0.52704406,0.4952363,0.17898631,-0.07041693,-0.06860788,0.46848863,0.23114982,-0.6885119,-1.6222384,0.006815734,425.16885,2.0849586,0.2599038,0.38504246,0.12928943,0.089973174,inf,inf,inf,inf,1,1,1,1,2,0,2,1,3,1,1,0
52835024,33274130,34.0362177,108.7608392,0.7450217,-7.718367,-1.153671,0.29549575,0.06588339,0.0,-0.16523764,-0.84391534,0.48220634,0.45154765,0.17898631,-0.07041693,-0.06860788,0.95414895,-2.9752042,0.9418927,-1.6237236,0.006815734,425.16885,2.0368772,0.2684494,0.388675,0.13429281,0.09101489,inf,inf,inf,inf,1,1,1,1,2,0,2,1,3,1,1,0
52934162,33274130,34.0362177,108.7608392,0.7412064,-7.806319,-1.1111996,0.29549575,0.06588339,0.0,-0.16968393,-0.84877825,0.4376095,0.40687114,0.17898631,-0.07041693,-0.06860788,-1.0090526,2.2964957,-0.94354606,-1.623055,0.006815734,425.16885,1.9944057,0.27755195,0.38997585,0.13924526,0.09178271,inf,inf,inf,inf,1,1,1,1,2,0,2,1,3,1,1,0
53043435,33274130,34.0362177,108.7608392,0.7445261,-7.9000144,-1.067571,0.29549575,0.06588339,0.0,-0.1485819,-0.88269955,0.39587086,0.36657557,0.17898631,-0.07041693,-0.06860788,-2.5810301,-1.9725096,0.3099792,-1.6220293,0.006815734,425.16885,1.9507772,0.26870015,0.3883404,0.13508697,0.090828605,inf,inf,inf,inf,1,1,1,1,2,0,2,1,3,1,1,0
53132748,33274130,34.0362177,108.7608392,0.7474196,-7.9797525,-1.0359232,0.29549575,0.06588339,0.0,-0.062074646,-0.9118572,0.37413976,0.34477076,0.17898631,-0.07041693,-0.06860788,5.0249634,1.4358753,-1.6037967,-1.6190765,0.006815734,425.16885,1.9191294,0.25877622,0.3855644,0.13009751,0.08963611,inf,inf,inf,inf,1,1,1,1,2,0,2,1,3,1,1,0
53241971,33274130,34.0362177,108.7608392,0.76440924,-8.081569,-1.0050423,0.29549575,0.06588339,0.0,-0.015226449,-0.9596507,0.34378764,0.30946228,0.17898631,-0.07041693,-0.06860788,0.60903555,-2.1869388,1.3832576,-1.6184062,0.006815734,425.16885,1.8882484,0.26822937,0.38740426,0.13539638,0.09052736,inf,inf,inf,inf,1,1,1,1,2,0,2,1,3,1,1,0
53341269,33274130,34.0362177,108.7608392,0.78098226,-8.176303,-0.9826713,0.29549575,0.06588339,0.0,0.024071895,-0.99265844,0.29516107,0.2555223,0.17898631,-0.07041693,-0.06860788,0.053058077,-3.330406,1.3821718,-1.61079,0.006815734,425.16885,1.8658774,0.25916696,0.38524514,0.13082118,0.0894685,inf,inf,inf,inf,1,1,1,1,2,0,2,1,3,1,1,0
53435609,33274130,34.0362177,108.7608392,0.8039142,-8.265658,-0.96544,0.29549575,0.06588339,0.0,0.10201009,-1.0062076,0.26556557,0.22073975,0.17898631,-0.07041693,-0.06860788,1.011859,-0.7365753,-0.20952243,-1.604961,0.006815734,425.16885,1.8486462,0.2669107,0.38587832,0.13517764,0.09011565,inf,inf,inf,inf,1,1,1,1,2,0,2,1,3,1,1,0
53534886,33274130,34.0362177,108.7608392,0.828289,-8.362088,-0.9501824,0.29549575,0.06588339,0.0,0.12477655,-1.0145426,0.2411729,0.19129097,0.17898631,-0.07041693,-0.06860788,4.103893,-0.10748856,-0.22292107,-1.6021637,0.006815734,425.16885,1.8333886,0.25792393,0.3860815,0.13062868,0.08931185,inf,inf,inf,inf,1,1,1,1,2,0,2,1,3,1,1,0
53634291,33274130,34.0362177,108.7608392,0.84949553,-8.459499,-0.9407584,0.29549575,0.06588339,0.0,0.0888102,-0.9950943,0.2203046,0.16289288,0.17898631,-0.07041693,-0.06860788,-4.746158,-1.45012,1.1420289,-1.6005931,0.006815734,425.16885,1.8239646,0.26652294,0.38731837,0.13571414,0.09009072,inf,inf,inf,inf,1,1,1,1,2,0,2,1,3,1,1,0
53743402,33274130,34.0362177,108.7608392,0.8674597,-8.564507,-0.93175423,0.29549575,0.06588339,0.0,0.08479438,-0.9669827,0.1905368,0.12749797,0.17898631,-0.07041693,-0.06860788,2.1290467,-0.24451327,1.2852514,-1.5952256,0.006815734,425.16885,1.8149604,0.2583869,0.385773,0.13147016,0.08916794,inf,inf,inf,inf,1,1,1,1,2,0,2,1,3,1,1,0
53832765,33274130,34.0362177,108.7608392,0.8815055,-8.6480465,-0.92567044,0.29549575,0.06588339,0.0,0.05007649,-0.934862,0.15356576,0.08768333,0.17898631,-0.07041693,-0.06860788,-0.3955717,1.9958645,-2.3494039,-1.5915045,0.006815734,425.16885,1.8088765,0.26616085,0.38640583,0.13572958,0.0898026,inf,inf,inf,inf,1,1,1,1,2,0,2,1,3,1,1,0
53942001,33274130,34.0362177,108.7608392,0.8935585,-8.746473,-0.92018515,0.29549575,0.06588339,0.0,0.019007497,-0.9092196,0.12404511,0.056112014,0.17898631,-0.07041693,-0.06860788,0.567284,-0.28662765,-0.42916134,-1.5867974,0.006815734,425.16885,1.8033912,0.2580787,0.384881,0.13145876,0.08888668,inf,inf,inf,inf,1,1,1,1,2,0,2,1,3,1,1,0
54041284,33274130,34.0362177,108.7608392,0.90451634,-8.828509,-0.9189236,0.29549575,0.06588339,0.0,0.010442551,-0.87230283,0.10248013,0.03245133,0.17898631,-0.07041693,-0.06860788,0.62275755,0.036193416,1.5121415,-1.5820365,0.006815734,425.16885,1.8021297,0.26675507,0.38609314,0.13627255,0.08964847,inf,inf,inf,inf,1,1,1,1,2,0,2,1,3,1,1,0
54140653,33274130,34.0362177,108.7608392,0.91244054,-8.909425,-0.91839993,0.29549575,0.06588339,0.0,-0.006170047,-0.8477715,0.07270736,0.002449307,0.17898631,-0.07041693,-0.06860788,0.0022032186,0.47799936,-0.29091725,-1.5789841,0.006815734,425.16885,1.801606,0.25774792,0.38399523,0.13151316,0.08862287,inf,inf,inf,inf,1,1,1,1,2,0,2,1,3,1,1,0
54239868,33274130,34.0362177,108.7608392,0.9215927,-8.991168,-0.9162021,0.29549575,0.06588339,0.0,-0.024474073,-0.81436193,0.044298843,-0.022417134,0.17898631,-0.07041693,-0.06860788,-1.1032605,1.9616066,-2.600298,-1.5740073,0.006815734,425.16885,1.7994082,0.26643103,0.3851914,0.13630526,0.089373685,inf,inf,inf,inf,1,1,1,1,2,0,2,1,3,1,1,0
54339162,33274130,34.0362177,108.7608392,0.9277821,-9.070572,-0.9181608,0.29549575,0.06588339,0.0,-0.038133066,-0.7956046,0.025056465,-0.040086515,0.17898631,-0.07041693,-0.06860788,0.45410636,-1.217181,0.9123244,-1.5733315,0.006815734,425.16885,1.8013669,0.2573996,0.383116,0.13146457,0.08835741,inf,inf,inf,inf,1,1,1,1,2,0,2,1,3,1,1,0
54438551,33274130,34.0362177,108.7608392,0.9360327,-9.150828,-0.92494255,0.29549575,0.06588339,0.0,-0.059487063,-0.779486,0.0038051787,-0.062361166,0.17898631,-0.07041693,-0.06860788,-1.665544,-0.52053577,1.0526128,-1.5738122,0.006815734,425.16885,1.8081486,0.26608732,0.38664132,0.1362916,0.08934544,inf,inf,inf,inf,1,1,1,1,2,0,2,1,3,1,1,0
54532783,33274130,34.0362177,108.7608392,0.9403829,-9.2236595,-0.9330968,0.29549575,0.06588339,0.0,-0.0730644,-0.7535486,-0.021641012,-0.08868039,0.17898631,-0.07041693,-0.06860788,-2.0391958,-1.281441,1.491191,-1.5741448,0.006815734,425.16885,1.816303,0.25622794,0.38396922,0.13101618,0.08821498,inf,inf,inf,inf,1,1,1,1,2,0,2,1,3,1,1,0
54642005,33274130,34.0362177,108.7608392,0.95418507,-9.300204,-0.9484322,0.29549575,0.06588339,0.0,-0.060736556,-0.72766376,-0.06684259,-0.13666086,0.17898631,-0.07041693,-0.06860788,0.86573476,0.9814056,-1.0759327,-1.5738001,0.006815734,425.16885,1.8316383,0.2657582,0.38573635,0.13649766,0.089090206,inf,inf,inf,inf,1,1,1,1,2,0,2,1,3,1,1,0
54741305,33274130,34.0362177,108.7608392,0.96446764,-9.369444,-0.9672345,0.29549575,0.06588339,0.0,-0.06432642,-0.69830066,-0.102427475,-0.17522115,0.17898631,-0.07041693,-0.06860788,-2.4552205,1.0891625,-0.8233127,-1.5743716,0.006815734,425.16885,1.8504406,0.2568033,0.38367712,0.13173285,0.08809494,inf,inf,inf,inf,1,1,1,1,2,0,2,1,3,1,1,0
54840592,33274130,34.0362177,108.7608392,0.9778073,-9.43939,-0.990275,0.29549575,0.06588339,0.0,-0.040803544,-0.6877682,-0.12450002,-0.2010703,0.17898631,-0.07041693,-0.06860788,3.1782901,0.33384055,-0.56943136,-1.5733993,0.006815734,425.16885,1.8734812,0.2655191,0.38485685,0.13659954,0.08884087,inf,inf,inf,inf,1,1,1,1,2,0,2,1,3,1,1,0
