timestamp,ref_timestamp,ref_lat,ref_lon,x,y,z,delta_xy[0],delta_xy[1],delta_z,vx,vy,vz,z_deriv,delta_vxy[0],delta_vxy[1],delta_vz,ax,ay,az,heading,delta_heading,ref_alt,dist_bottom,eph,epv,evh,evv,vxy_max,vz_max,hagl_min,hagl_max,xy_valid,z_valid,v_xy_valid,v_z_valid,xy_reset_counter,z_reset_counter,vxy_reset_counter,vz_reset_counter,heading_reset_counter,xy_global,z_global,dist_bottom_valid
565000354,15251870,34.0348603,108.7564941,-0.788513,0.229306,-0.7959,0.0727096,0.0925826,0.0,0.0348729,0.0310141,-0.285646,-0.0115441,-0.0110595,-0.336131,0.338236,0.58137,0.371538,-0.187778,0.104571,0.0157947,425.28,0.144746,0.282328,0.388914,0.134181,0.103807,inf,inf,inf,inf,1,1,1,1,2,0,2,1,5,1,1,1
565010360,15251870,34.0348603,108.7564941,-0.788353,0.229284,-0.795823,0.0727096,0.0925826,0.0,0.0425391,0.0126986,-0.290054,-0.0158464,-0.0110595,-0.336131,0.338236,0.628342,-2.26687,-0.703922,0.104266,0.0157947,425.28,0.141932,0.283193,0.389573,0.134641,0.103997,inf,inf,inf,inf,1,1,1,1,2,0,2,1,5,1,1,1
565100436,15251870,34.0348603,108.7564941,-0.786842,0.228834,-0.798803,0.0727096,0.0925826,0.0,0.0121906,0.0462835,-0.287256,-0.0158289,-0.0110595,-0.336131,0.338236,-2.67633,7.60283,-1.46322,0.104102,0.0157947,425.28,0.125488,0.291211,0.393133,0.138785,0.105436,inf,inf,inf,inf,1,1,1,1,2,0,2,1,5,1,1,1
565200523,15251870,34.0348603,108.7564941,-0.785649,0.229524,-0.799774,0.0727096,0.0925826,0.0,0.0182039,0.0619123,-0.302156,-0.0308802,-0.0110595,-0.336131,0.338236,3.4387,2.84161,-3.17315,0.104961,0.0157947,425.28,0.153493,0.282665,0.390595,0.134185,0.103979,inf,inf,inf,inf,1,1,1,1,2,0,2,1,5,1,1,1
565300611,15251870,34.0348603,108.7564941,-0.784056,0.230658,-0.804991,0.0727096,0.0925826,0.0,0.085118,0.00251178,-0.305274,-0.0382823,-0.0110595,-0.336131,0.338236,4.14905,-6.15735,0.953629,0.103688,0.0157947,425.28,0.158709,0.291544,0.392372,0.13886,0.105341,inf,inf,inf,inf,1,1,1,1,2,0,2,1,5,1,1,1
565400699,15251870,34.0348603,108.7564941,-0.782426,0.23332,-0.80729,0.0727096,0.0925826,0.0,0.0331027,0.0235983,-0.293924,-0.027647,-0.0110595,-0.336131,0.338236,-2.23726,-2.2534,2.72226,0.10414,0.0157947,425.28,0.161008,0.2831,0.389865,0.134562,0.103905,inf,inf,inf,inf,1,1,1,1,2,0,2,1,5,1,1,1
565500787,15251870,34.0348603,108.7564941,-0.780566,0.236299,-0.81383,0.0727096,0.0925826,0.0,0.0215558,0.0357616,-0.298369,-0.037242,-0.0110595,-0.336131,0.338236,-1.61638,2.54002,-6.48937,0.103955,0.0157947,425.28,0.167549,0.291986,0.391632,0.139397,0.105266,inf,inf,inf,inf,1,1,1,1,2,0,2,1,5,1,1,1
565600875,15251870,34.0348603,108.7564941,-0.779715,0.238355,-0.818769,0.0727096,0.0925826,0.0,0.0222954,0.0367336,-0.295133,-0.0361906,-0.0110595,-0.336131,0.338236,-3.8924,-0.117018,8.41185,0.105612,0.0157947,425.28,0.172488,0.283456,0.389124,0.134807,0.103815,inf,inf,inf,inf,1,1,1,1,2,0,2,1,5,1,1,1
565700966,15251870,34.0348603,108.7564941,-0.779119,0.240431,-0.827838,0.0727096,0.0925826,0.0,0.0282364,0.0250103,-0.306553,-0.0523197,-0.0110595,-0.336131,0.338236,-0.73022,-2.40515,7.96856,0.106093,0.0157947,425.28,0.181557,0.292342,0.393349,0.139852,0.105446,inf,inf,inf,inf,1,1,1,1,2,0,2,1,5,1,1,1
565801050,15251870,34.0348603,108.7564941,-0.778923,0.241155,-0.831634,0.0727096,0.0925826,0.0,0.03634,0.0020445,-0.313186,-0.0582504,-0.0110595,-0.336131,0.338236,-0.700916,-3.52838,-1.39408,0.104854,0.0157947,425.28,0.185352,0.283878,0.390825,0.135563,0.104004,inf,inf,inf,inf,1,1,1,1,2,0,2,1,5,1,1,1
565901141,15251870,34.0348603,108.7564941,-0.778557,0.240832,-0.840613,0.0727096,0.0925826,0.0,0.0287299,0.0138708,-0.37217,-0.121969,-0.0110595,-0.336131,0.338236,-1.34451,1.71554,-8.79057,0.106859,0.0157947,425.28,0.194331,0.292779,0.392612,0.140539,0.10537,inf,inf,inf,inf,1,1,1,1,2,0,2,1,5,1,1,1
566001226,15251870,34.0348603,108.7564941,-0.778763,0.240652,-0.84679,0.0727096,0.0925826,0.0,0.0255784,0.000472784,-0.350288,-0.0994717,-0.0110595,-0.336131,0.338236,3.68083,-0.624629,-2.16459,0.106885,0.0157947,425.28,0.200509,0.284309,0.390101,0.135994,0.103929,inf,inf,inf,inf,1,1,1,1,2,0,2,1,5,1,1,1
566101314,15251870,34.0348603,108.7564941,-0.777876,0.240603,-0.855922,0.0727096,0.0925826,0.0,0.0471276,0.00266374,-0.342742,-0.0945113,-0.0110595,-0.336131,0.338236,4.72725,-1.90221,-10.5539,0.107338,0.0157947,425.28,0.209641,0.293223,0.391879,0.141028,0.105291,inf,inf,inf,inf,1,1,1,1,2,0,2,1,5,1,1,1
566201401,15251870,34.0348603,108.7564941,-0.778136,0.242442,-0.859965,0.0727096,0.0925826,0.0,0.0259347,0.0232106,-0.374171,-0.122455,-0.0110595,-0.336131,0.338236,-0.265508,1.27371,-9.66321,0.108981,0.0157947,425.28,0.213683,0.284737,0.389382,0.136774,0.103856,inf,inf,inf,inf,1,1,1,1,2,0,2,1,5,1,1,1
566301490,15251870,34.0348603,108.7564941,-0.778617,0.245451,-0.868336,0.0727096,0.0925826,0.0,0.0174226,0.0212718,-0.349272,-0.0988268,-0.0110595,-0.336131,0.338236,-1.68382,-1.62556,2.07318,0.110332,0.0157947,425.28,0.222054,0.293669,0.39115,0.14175,0.105217,inf,inf,inf,inf,1,1,1,1,2,0,2,1,5,1,1,1
566401577,15251870,34.0348603,108.7564941,-0.778597,0.245925,-0.867953,0.0727096,0.0925826,0.0,0.0319015,0.00535807,-0.312494,-0.0560901,-0.0110595,-0.336131,0.338236,0.446611,-3.38253,1.99507,0.108638,0.0157947,425.28,0.221671,0.285174,0.391093,0.137203,0.104048,inf,inf,inf,inf,1,1,1,1,2,0,2,1,5,1,1,1
566501665,15251870,34.0348603,108.7564941,-0.777992,0.244312,-0.871921,0.0727096,0.0925826,0.0,0.0188379,-0.00473555,-0.383094,-0.125844,-0.0110595,-0.336131,0.338236,-1.76347,1.57148,-6.31412,0.109935,0.0157947,425.28,0.22564,0.294122,0.392884,0.142351,0.105417,inf,inf,inf,inf,1,1,1,1,2,0,2,1,5,1,1,1
566601753,15251870,34.0348603,108.7564941,-0.77856,0.2434,-0.874132,0.0727096,0.0925826,0.0,0.00910444,-0.0158194,-0.348958,-0.0890016,-0.0110595,-0.336131,0.338236,-2.52749,1.437,-6.89886,0.110887,0.0157947,425.28,0.22785,0.285544,0.390368,0.13765,0.103965,inf,inf,inf,inf,1,1,1,1,2,0,2,1,5,1,1,1
566701840,15251870,34.0348603,108.7564941,-0.779078,0.244438,-0.87878,0.0727096,0.0925826,0.0,0.0238551,0.0084412,-0.306419,-0.0465763,-0.0110595,-0.336131,0.338236,2.8179,-2.62612,-6.00529,0.109899,0.0157947,425.28,0.232498,0.294502,0.392158,0.142701,0.105331,inf,inf,inf,inf,1,1,1,1,2,0,2,1,5,1,1,1
566801928,15251870,34.0348603,108.7564941,-0.780196,0.246794,-0.880759,0.0727096,0.0925826,0.0,0.0287617,0.0380006,-0.304714,-0.0426644,-0.0110595,-0.336131,0.338236,2.65824,-0.490708,-7.35057,0.111732,0.0157947,425.28,0.234477,0.285926,0.389655,0.138088,0.103884,inf,inf,inf,inf,1,1,1,1,2,0,2,1,5,1,1,1
566902016,15251870,34.0348603,108.7564941,-0.782079,0.250819,-0.884882,0.0727096,0.0925826,0.0,-0.0259562,0.0743484,-0.264721,-0.00430697,-0.0110595,-0.336131,0.338236,-0.865069,4.99793,5.01461,0.116837,0.0157947,425.28,0.238601,0.294894,0.391434,0.143036,0.105251,inf,inf,inf,inf,1,1,1,1,2,0,2,1,5,1,1,1
567002104,15251870,34.0348603,108.7564941,-0.786327,0.252118,-0.887136,0.0727096,0.0925826,0.0,-0.0225404,-0.00179661,-0.342048,-0.0797567,-0.0110595,-0.336131,0.338236,1.61424,-1.59839,3.55438,0.126831,0.0157947,425.28,0.240855,0.286404,0.391367,0.138473,0.104079,inf,inf,inf,inf,1,1,1,1,2,0,2,1,5,1,1,1
567102192,15251870,34.0348603,108.7564941,-0.78884,0.246897,-0.895802,0.0727096,0.0925826,0.0,0.00347055,-0.0720894,-0.287466,-0.0291661,-0.0110595,-0.336131,0.338236,0.838191,-3.91269,-0.615184,0.144584,0.0157947,425.28,0.249521,0.295388,0.393153,0.143549,0.105442,inf,inf,inf,inf,1,1,1,1,2,0,2,1,5,1,1,1
567202282,15251870,34.0348603,108.7564941,-0.788879,0.241757,-0.901421,0.0727096,0.0925826,0.0,-0.00947665,-0.0490882,-0.322011,-0.0640059,-0.0110595,-0.336131,0.338236,1.2921,0.4615,10.954,0.157477,0.0157947,425.28,0.25514,0.286681,0.390609,0.138612,0.103967,inf,inf,inf,inf,1,1,1,1,2,0,2,1,5,1,1,1
567302368,15251870,34.0348603,108.7564941,-0.78627,0.241481,-0.907373,0.0727096,0.0925826,0.0,0.023619,0.00194587,-0.294189,-0.0380352,-0.0110595,-0.336131,0.338236,-1.12577,2.37813,4.27533,0.158558,0.0157947,425.28,0.261092,0.295667,0.392383,0.143666,0.105329,inf,inf,inf,inf,1,1,1,1,2,0,2,1,5,1,1,1
567402455,15251870,34.0348603,108.7564941,-0.783367,0.243852,-0.908643,0.0727096,0.0925826,0.0,0.0287852,0.0334551,-0.279251,-0.0208155,-0.0110595,-0.336131,0.338236,-1.97866,3.11748,8.42443,0.159711,0.0157947,425.28,0.262362,0.287077,0.389869,0.138719,0.10388,inf,inf,inf,inf,1,1,1,1,2,0,2,1,5,1,1,1
567502543,15251870,34.0348603,108.7564941,-0.782263,0.247061,-0.914054,0.0727096,0.0925826,0.0,0.00490064,0.0503629,-0.32032,-0.062514,-0.0110595,-0.336131,0.338236,-1.51359,0.987395,5.50448,0.157481,0.0157947,425.28,0.267773,0.296071,0.391633,0.143642,0.10524,inf,inf,inf,inf,1,1,1,1,2,0,2,1,5,1,1,1
567602631,15251870,34.0348603,108.7564941,-0.782984,0.249065,-0.917052,0.0727096,0.0925826,0.0,0.00181996,0.0406677,-0.262064,-0.00139351,-0.0110595,-0.336131,0.338236,4.08966,-2.97984,13.3294,0.151519,0.0157947,425.28,0.27077,0.287535,0.389132,0.13898,0.103804,inf,inf,inf,inf,1,1,1,1,2,0,2,1,5,1,1,1
567702718,15251870,34.0348603,108.7564941,-0.785598,0.249753,-0.921175,0.0727096,0.0925826,0.0,-0.0251696,0.0148792,-0.307528,-0.0488867,-0.0110595,-0.336131,0.338236,-0.568698,1.60712,-4.76686,0.148538,0.0157947,425.28,0.274893,0.29655,0.393356,0.143994,0.105434,inf,inf,inf,inf,1,1,1,1,2,0,2,1,5,1,1,1
567802807,15251870,34.0348603,108.7564941,-0.78734,0.250259,-0.921761,0.0727096,0.0925826,0.0,-0.0309287,-0.00834212,-0.358332,-0.0964684,-0.0110595,-0.336131,0.338236,0.5694,2.44811,-1.59346,0.150814,0.0157947,425.28,0.27548,0.28799,0.390831,0.138855,0.103994,inf,inf,inf,inf,1,1,1,1,2,0,2,1,5,1,1,1
567902894,15251870,34.0348603,108.7564941,-0.787718,0.248959,-0.929707,0.0727096,0.0925826,0.0,-0.0256204,-0.0268029,-0.397397,-0.135482,-0.0110595,-0.336131,0.338236,-3.59844,3.56742,-4.8523,0.14792,0.0157947,425.28,0.283426,0.297012,0.392617,0.144016,0.10536,inf,inf,inf,inf,1,1,1,1,2,0,2,1,5,1,1,1
568002985,15251870,34.0348603,108.7564941,-0.787309,0.24664,-0.934792,0.0727096,0.0925826,0.0,0.0273949,-0.0415225,-0.361001,-0.0945739,-0.0110595,-0.336131,0.338236,2.31808,-4.26475,-5.58611,0.143105,0.0157947,425.28,0.28851,0.288421,0.390106,0.139166,0.103923,inf,inf,inf,inf,1,1,1,1,2,0,2,1,5,1,1,1
568103070,15251870,34.0348603,108.7564941,-0.784841,0.245753,-0.943083,0.0727096,0.0925826,0.0,0.0190037,-0.0161396,-0.322214,-0.0564586,-0.0110595,-0.336131,0.338236,3.68705,-4.96002,5.66703,0.135583,0.0157947,425.28,0.296802,0.297465,0.391882,0.144322,0.105287,inf,inf,inf,inf,1,1,1,1,2,0,2,1,5,1,1,1
568203157,15251870,34.0348603,108.7564941,-0.783991,0.247005,-0.944697,0.0727096,0.0925826,0.0,0.00178822,0.0155661,-0.366375,-0.0942719,-0.0110595,-0.336131,0.338236,0.537819,-2.83918,14.0181,0.132009,0.0157947,425.28,0.298415,0.28886,0.389385,0.139195,0.103854,inf,inf,inf,inf,1,1,1,1,2,0,2,1,5,1,1,1
568303245,15251870,34.0348603,108.7564941,-0.783104,0.248172,-0.950305,0.0727096,0.0925826,0.0,-0.00541221,-0.00983026,-0.351319,-0.0779611,-0.0110595,-0.336131,0.338236,-1.42598,-2.60966,5.41935,0.128877,0.0157947,425.28,0.304024,0.297908,0.391152,0.143925,0.105214,inf,inf,inf,inf,1,1,1,1,2,0,2,1,5,1,1,1
568403335,15251870,34.0348603,108.7564941,-0.781455,0.247332,-0.950583,0.0727096,0.0925826,0.0,-0.00174179,-0.012078,-0.393244,-0.11105,-0.0110595,-0.336131,0.338236,3.46884,-7.88621,-2.6199,0.12965,0.0157947,425.28,0.304301,0.289388,0.388682,0.139052,0.103798,inf,inf,inf,inf,1,1,1,1,2,0,2,1,5,1,1,1
568503423,15251870,34.0348603,108.7564941,-0.780508,0.246706,-0.962905,0.0727096,0.0925826,0.0,-0.0106577,-0.000823057,-0.417802,-0.1348,-0.0110595,-0.336131,0.338236,1.61729,-0.947858,2.97939,0.132062,0.0157947,425.28,0.316623,0.29845,0.392901,0.144089,0.105428,inf,inf,inf,inf,1,1,1,1,2,0,2,1,5,1,1,1
568603509,15251870,34.0348603,108.7564941,-0.780519,0.243345,-0.967829,0.0727096,0.0925826,0.0,-0.00489092,-0.0295514,-0.471508,-0.179968,-0.0110595,-0.336131,0.338236,-0.819489,-0.341566,-18.2917,0.130216,0.0157947,425.28,0.321547,0.289887,0.390406,0.139309,0.104005,inf,inf,inf,inf,1,1,1,1,2,0,2,1,5,1,1,1
568703604,15251870,34.0348603,108.7564941,-0.78046,0.238669,-0.9797,0.0727096,0.0925826,0.0,-0.0150011,-0.0531111,-0.402928,-0.112159,-0.0110595,-0.336131,0.338236,1.30841,-2.23806,2.86476,0.129614,0.0157947,425.28,0.333418,0.298972,0.392196,0.144196,0.105373,inf,inf,inf,inf,1,1,1,1,2,0,2,1,5,1,1,1
568793676,15251870,34.0348603,108.7564941,-0.78118,0.236405,-0.981808,0.0727096,0.0925826,0.0,-0.0181253,-0.0343305,-0.439913,-0.141034,-0.0110595,-0.336131,0.338236,-0.812329,0.878113,-9.3559,0.125729,0.0157947,425.28,0.335526,0.289515,0.389038,0.138637,0.103757,inf,inf,inf,inf,1,1,1,1,2,0,2,1,5,1,1,1
568903772,15251870,34.0348603,108.7564941,-0.782526,0.236709,-0.992373,0.0727096,0.0925826,0.0,-0.0142557,0.00192408,-0.411203,-0.112059,-0.0110595,-0.336131,0.338236,1.40628,-1.22125,-2.17697,0.117897,0.0157947,425.28,0.346091,0.299484,0.391453,0.143956,0.105304,inf,inf,inf,inf,1,1,1,1,2,0,2,1,5,1,1,1
569003868,15251870,34.0348603,108.7564941,-0.781036,0.238214,-0.991238,0.0727096,0.0925826,0.0,0.013722,0.0168019,-0.418249,-0.108999,-0.0110595,-0.336131,0.338236,0.0553901,1.456,0.714093,0.113674,0.0157947,425.28,0.344956,0.290857,0.391392,0.139032,0.104141,inf,inf,inf,inf,1,1,1,1,2,0,2,1,5,1,1,1
569103948,15251870,34.0348603,108.7564941,-0.778078,0.239818,-0.997898,0.0727096,0.0925826,0.0,0.00701647,0.0382879,-0.434981,-0.124387,-0.0110595,-0.336131,0.338236,-2.88796,6.59816,-0.823894,0.112383,0.0157947,425.28,0.351616,0.299948,0.393181,0.143824,0.105509,inf,inf,inf,inf,1,1,1,1,2,0,2,1,5,1,1,1
569204036,15251870,34.0348603,108.7564941,-0.777748,0.239463,-0.999857,0.0727096,0.0925826,0.0,-0.00048041,0.0129272,-0.42933,-0.11103,-0.0110595,-0.336131,0.338236,-0.781467,0.367959,2.10028,0.113355,0.0157947,425.28,0.353575,0.291215,0.390655,0.138762,0.104064,inf,inf,inf,inf,1,1,1,1,2,0,2,1,5,1,1,1
569294115,15251870,34.0348603,108.7564941,-0.779832,0.237291,-1.00728,0.0727096,0.0925826,0.0,-0.0212051,-0.0143585,-0.428373,-0.108559,-0.0110595,-0.336131,0.338236,0.0616073,-0.63305,10.4313,0.114654,0.0157947,425.28,0.360999,0.299362,0.39176,0.142969,0.105238,inf,inf,inf,inf,1,1,1,1,2,0,2,1,5,1,1,1
569404213,15251870,34.0348603,108.7564941,-0.781078,0.235464,-1.00624,0.0727096,0.0925826,0.0,-0.00322796,-0.0303397,-0.400228,-0.070047,-0.0110595,-0.336131,0.338236,0.973843,0.678024,10.2972,0.11535,0.0157947,425.28,0.359961,0.29163,0.389929,0.138626,0.103998,inf,inf,inf,inf,1,1,1,1,2,0,2,1,5,1,1,1
569494291,15251870,34.0348603,108.7564941,-0.780737,0.235208,-1.01089,0.0727096,0.0925826,0.0,0.00271427,0.011767,-0.427767,-0.0963607,-0.0110595,-0.336131,0.338236,-1.40412,4.47777,-0.278239,0.11485,0.0157947,425.28,0.364611,0.299777,0.391027,0.142783,0.105169,inf,inf,inf,inf,1,1,1,1,2,0,2,1,5,1,1,1
569604387,15251870,34.0348603,108.7564941,-0.78043,0.238341,-1.00936,0.0727096,0.0925826,0.0,0.00371394,0.023752,-0.394509,-0.0555619,-0.0110595,-0.336131,0.338236,0.415596,-2.48693,7.58114,0.112303,0.0157947,425.28,0.36308,0.292026,0.389208,0.138353,0.103932,inf,inf,inf,inf,1,1,1,1,2,0,2,1,5,1,1,1
569704475,15251870,34.0348603,108.7564941,-0.780545,0.242635,-1.0157,0.0727096,0.0925826,0.0,-0.00900199,0.0391409,-0.425666,-0.0882002,-0.0110595,-0.336131,0.338236,-2.10164,5.7094,0.496147,0.108237,0.0157947,425.28,0.369418,0.301098,0.39344,0.143154,0.105566,inf,inf,inf,inf,1,1,1,1,2,0,2,1,5,1,1,1
569804563,15251870,34.0348603,108.7564941,-0.782283,0.243299,-1.01802,0.0727096,0.0925826,0.0,-0.00253631,0.00911808,-0.414837,-0.0743647,-0.0110595,-0.336131,0.338236,-0.239953,0.030955,-2.57107,0.106052,0.0157947,425.28,0.37174,0.292281,0.390908,0.138029,0.104117,inf,inf,inf,inf,1,1,1,1,2,0,2,1,5,1,1,1
569904650,15251870,34.0348603,108.7564941,-0.78324,0.242039,-1.02581,0.0727096,0.0925826,0.0,-0.00807798,-0.00930469,-0.420949,-0.0846212,-0.0110595,-0.336131,0.338236,-0.817967,-1.44698,-2.54541,0.104708,0.0157947,425.28,0.379531,0.301336,0.392701,0.142736,0.105484,inf,inf,inf,inf,1,1,1,1,2,0,2,1,5,1,1,1
569994729,15251870,34.0348603,108.7564941,-0.783533,0.241328,-1.02409,0.0727096,0.0925826,0.0,-0.0168132,-0.000918139,-0.411425,-0.0691244,-0.0110595,-0.336131,0.338236,-0.796542,2.99116,2.85296,0.102843,0.0157947,425.28,0.377808,0.2917,0.389538,0.137337,0.103864,inf,inf,inf,inf,1,1,1,1,2,0,2,1,5,1,1,1
570104826,15251870,34.0348603,108.7564941,-0.783343,0.241837,-1.03067,0.0727096,0.0925826,0.0,-5.29955e-05,0.0101795,-0.425127,-0.0854653,-0.0110595,-0.336131,0.338236,0.15337,2.23198,-5.86278,0.100673,0.0157947,425.28,0.384391,0.301617,0.391981,0.142478,0.105418,inf,inf,inf,inf,1,1,1,1,2,0,2,1,5,1,1,0
570194905,15251870,34.0348603,108.7564941,-0.784241,0.24219,-1.03163,0.0727096,0.0925826,0.0,-0.0165036,0.0181862,-0.41136,-0.0681126,-0.0110595,-0.336131,0.338236,-0.209055,3.96021,6.81792,0.0993497,0.0157947,425.28,0.385347,0.291867,0.388826,0.137007,0.103787,inf,inf,inf,inf,1,1,1,1,2,0,2,1,5,1,1,0
570305002,15251870,34.0348603,108.7564941,-0.787141,0.241569,-1.04231,0.0727096,0.0925826,0.0,-0.0288433,-0.00251304,-0.439803,-0.0996331,-0.0110595,-0.336131,0.338236,0.913795,-1.25436,7.50595,0.100613,0.0157947,425.28,0.396032,0.30176,0.391266,0.142141,0.105341,inf,inf,inf,inf,1,1,1,1,2,0,2,1,5,1,1,0
570405089,15251870,34.0348603,108.7564941,-0.79163,0.239445,-1.04579,0.0727096,0.0925826,0.0,-0.041487,-0.0156666,-0.512274,-0.165338,-0.0110595,-0.336131,0.338236,-0.907186,-4.60745,-9.80478,0.0990589,0.0157947,425.28,0.399513,0.292846,0.388782,0.13732,0.103902,inf,inf,inf,inf,1,1,1,1,2,0,2,1,5,1,1,0
570495173,15251870,34.0348603,108.7564941,-0.797359,0.237673,-1.05947,0.0727096,0.0925826,0.0,-0.0599956,0.00681935,-0.522086,-0.175722,-0.0110595,-0.336131,0.338236,1.71946,-0.521111,6.3175,0.0965765,0.0157947,425.28,0.413187,0.300925,0.392341,0.1416,0.105345,inf,inf,inf,inf,1,1,1,1,2,0,2,1,5,1,1,0
570605271,15251870,34.0348603,108.7564941,-0.806838,0.236091,-1.0753,0.0727096,0.0925826,0.0,-0.0586514,-0.00382693,-0.580988,-0.229668,-0.0110595,-0.336131,0.338236,-0.818255,-3.46615,-7.57242,0.0924347,0.0157947,425.28,0.42902,0.29294,0.390506,0.137195,0.104089,inf,inf,inf,inf,1,1,1,1,2,0,2,1,5,1,1,0
570695344,15251870,34.0348603,108.7564941,-0.814029,0.234503,-1.09474,0.0727096,0.0925826,0.0,-0.044264,0.0104582,-0.577906,-0.228136,-0.0110595,-0.336131,0.338236,0.588634,3.1727,-1.44197,0.093424,0.0157947,425.28,0.448456,0.301011,0.391626,0.141663,0.105266,inf,inf,inf,inf,1,1,1,1,2,0,2,1,5,1,1,0
570805443,15251870,34.0348603,108.7564941,-0.818082,0.232368,-1.10702,0.0727096,0.0925826,0.0,-0.0175978,-0.0436688,-0.553686,-0.195606,-0.0110595,-0.336131,0.338236,0.383408,-7.1689,-0.102506,0.0942921,0.0157947,425.28,0.46074,0.293126,0.389809,0.137255,0.104028,inf,inf,inf,inf,1,1,1,1,2,0,2,1,5,1,1,0
570895520,15251870,34.0348603,108.7564941,-0.81883,0.229308,-1.12024,0.0727096,0.0925826,0.0,0.00863254,-0.0302231,-0.527832,-0.168839,-0.0110595,-0.336131,0.338236,1.34589,0.833129,4.48139,0.0943743,0.0157947,425.28,0.473954,0.301192,0.390922,0.141431,0.105202,inf,inf,inf,inf,1,1,1,1,2,0,2,1,5,1,1,0
570995608,15251870,34.0348603,108.7564941,-0.816412,0.222583,-1.12791,0.0727096,0.0925826,0.0,0.0338973,-0.0827564,-0.498647,-0.133208,-0.0110595,-0.336131,0.338236,0.883418,-2.50793,2.29474,0.0933845,0.0157947,425.28,0.48163,0.292362,0.388451,0.136432,0.103763,inf,inf,inf,inf,1,1,1,1,2,0,2,1,5,1,1,0
571105704,15251870,34.0348603,108.7564941,-0.8114,0.211152,-1.14137,0.0727096,0.0925826,0.0,0.0470526,-0.101658,-0.483748,-0.120046,-0.0110595,-0.336131,0.338236,-0.212862,2.96398,-1.84123,0.0923384,0.0157947,425.28,0.495092,0.302193,0.390884,0.14149,0.105312,inf,inf,inf,inf,1,1,1,1,2,0,2,1,5,1,1,0
571195783,15251870,34.0348603,108.7564941,-0.806236,0.200756,-1.14428,0.0727096,0.0925826,0.0,0.0901078,-0.109786,-0.428086,-0.0617081,-0.0110595,-0.336131,0.338236,0.264748,0.868092,-3.55803,0.0916973,0.0157947,425.28,0.497996,0.292496,0.390172,0.136103,0.103947,inf,inf,inf,inf,1,1,1,1,2,0,2,1,5,1,1,0
571305880,15251870,34.0348603,108.7564941,-0.794836,0.18627,-1.14871,0.0727096,0.0925826,0.0,0.147719,-0.135669,-0.354318,0.00659569,-0.0110595,-0.336131,0.338236,1.51537,0.408621,4.30955,0.0900451,0.0157947,425.28,0.502432,0.302299,0.39264,0.141002,0.105505,inf,inf,inf,inf,1,1,1,1,2,0,2,1,5,1,1,0
571395959,15251870,34.0348603,108.7564941,-0.782275,0.172793,-1.14595,0.0727096,0.0925826,0.0,0.233061,-0.132227,-0.338515,0.022382,-0.0110595,-0.336131,0.338236,1.59002,0.395946,-2.56064,0.0889072,0.0157947,425.28,0.499669,0.29274,0.389479,0.135595,0.103883,inf,inf,inf,inf,1,1,1,1,2,0,2,1,5,1,1,0
571496047,15251870,34.0348603,108.7564941,-0.758342,0.159617,-1.14556,0.0727096,0.0925826,0.0,0.330008,-0.115328,-0.271682,0.0824556,-0.0110595,-0.336131,0.338236,1.27363,-3.3693,7.37331,0.0876081,0.0157947,425.28,0.499277,0.301602,0.391262,0.14011,0.105248,inf,inf,inf,inf,1,1,1,1,2,0,2,1,5,1,1,0
571596135,15251870,34.0348603,108.7564941,-0.725953,0.149695,-1.13684,0.0727096,0.0925826,0.0,0.444437,-0.100408,-0.231065,0.120506,-0.0110595,-0.336131,0.338236,1.21847,-1.0944,2.28659,0.0839121,0.0157947,425.28,0.490562,0.292887,0.38879,0.13524,0.103804,inf,inf,inf,inf,1,1,1,1,2,0,2,1,5,1,1,0
571696224,15251870,34.0348603,108.7564941,-0.681297,0.141589,-1.12663,0.0727096,0.0925826,0.0,0.561473,-0.0776538,-0.184509,0.16061,-0.0110595,-0.336131,0.338236,0.819055,-1.81115,5.01003,0.0861852,0.0157947,425.28,0.480353,0.301723,0.390562,0.139742,0.105162,inf,inf,inf,inf,1,1,1,1,2,0,2,1,5,1,1,0
571806326,15251870,34.0348603,108.7564941,-0.622833,0.137397,-1.11309,0.0727096,0.0925826,0.0,0.683398,-0.0330142,-0.205588,0.134579,-0.0110595,-0.336131,0.338236,0.35102,4.69977,-4.37381,0.0878559,0.0157947,425.28,0.466811,0.293891,0.388759,0.13534,0.10391,inf,inf,inf,inf,1,1,1,1,2,0,2,1,5,1,1,0
571896401,15251870,34.0348603,108.7564941,-0.563674,0.136584,-1.10719,0.0727096,0.0925826,0.0,0.792707,-0.0193215,-0.222738,0.109915,-0.0110595,-0.336131,0.338236,-0.695822,-0.618456,-2.02821,0.0885458,0.0157947,425.28,0.460913,0.301843,0.392312,0.139469,0.105348,inf,inf,inf,inf,1,1,1,1,2,0,2,1,5,1,1,0
571996489,15251870,34.0348603,108.7564941,-0.491425,0.138625,-1.10235,0.0727096,0.0925826,0.0,0.888418,0.0246421,-0.260877,0.0657467,-0.0110595,-0.336131,0.338236,1.1491,-1.68318,3.79,0.0917942,0.0157947,425.28,0.456069,0.293202,0.389794,0.134919,0.103896,inf,inf,inf,inf,1,1,1,1,2,0,2,1,5,1,1,0
572096574,15251870,34.0348603,108.7564941,-0.411784,0.14237,-1.10759,0.0727096,0.0925826,0.0,0.937198,0.0430576,-0.341559,-0.0240174,-0.0110595,-0.336131,0.338236,-0.145308,-1.10649,-6.72484,0.0936129,0.0157947,425.28,0.461306,0.302003,0.391544,0.139562,0.105258,inf,inf,inf,inf,1,1,1,1,2,0,2,1,5,1,1,0
572196662,15251870,34.0348603,108.7564941,-0.328306,0.147572,-1.11281,0.0727096,0.0925826,0.0,0.965516,0.0448737,-0.331832,-0.0180515,-0.0110595,-0.336131,0.338236,0.571687,0.433121,5.75143,0.0929213,0.0157947,425.28,0.466524,0.293394,0.391459,0.135149,0.104067,inf,inf,inf,inf,1,1,1,1,2,0,2,1,5,1,1,0
572296750,15251870,34.0348603,108.7564941,-0.241385,0.153411,-1.12172,0.0727096,0.0925826,0.0,0.960048,0.0622049,-0.374158,-0.0659038,-0.0110595,-0.336131,0.338236,-0.646667,4.07352,-2.07436,0.0893803,0.0157947,425.28,0.475442,0.3022,0.39324,0.139853,0.105437,inf,inf,inf,inf,1,1,1,1,2,0,2,1,5,1,1,0
572396837,15251870,34.0348603,108.7564941,-0.155448,0.158799,-1.12819,0.0727096,0.0925826,0.0,0.957597,0.0447327,-0.407692,-0.0993323,-0.0110595,-0.336131,0.338236,-1.5504,-1.29932,-2.79842,0.0876489,0.0157947,425.28,0.481911,0.293616,0.390698,0.135402,0.103981,inf,inf,inf,inf,1,1,1,1,2,0,2,1,5,1,1,0
572496927,15251870,34.0348603,108.7564941,-0.0682952,0.164794,-1.14226,0.0727096,0.0925826,0.0,0.951791,0.0720617,-0.448002,-0.14283,-0.0110595,-0.336131,0.338236,0.233293,-3.01545,-0.109259,0.0900618,0.0157947,425.28,0.495975,0.302418,0.392469,0.139975,0.105344,inf,inf,inf,inf,1,1,1,1,2,0,2,1,5,1,1,0
572597013,15251870,34.0348603,108.7564941,0.0231664,0.174548,-1.15435,0.0727096,0.0925826,0.0,0.942737,0.10562,-0.423951,-0.117894,-0.0110595,-0.336131,0.338236,0.5436,4.36861,6.21565,0.0937193,0.0157947,425.28,0.508064,0.293893,0.389943,0.135415,0.10389,inf,inf,inf,inf,1,1,1,1,2,0,2,1,5,1,1,0
572697101,15251870,34.0348603,108.7564941,0.117015,0.185802,-1.16667,0.0727096,0.0925826,0.0,0.947978,0.116926,-0.43099,-0.126344,-0.0110595,-0.336131,0.338236,-0.887964,3.61777,0.617971,0.0954273,0.0157947,425.28,0.520392,0.302697,0.391704,0.140044,0.10525,inf,inf,inf,inf,1,1,1,1,2,0,2,1,5,1,1,0
572797205,15251870,34.0348603,108.7564941,0.208257,0.193381,-1.18079,0.0727096,0.0925826,0.0,0.919845,0.09999,-0.462838,-0.159084,-0.0110595,-0.336131,0.338236,-0.701174,0.652947,0.308078,0.0943479,0.0157947,425.28,0.534509,0.29395,0.389187,0.135253,0.103787,inf,inf,inf,inf,1,1,1,1,2,0,2,1,5,1,1,0
572897279,15251870,34.0348603,108.7564941,0.297438,0.198506,-1.20048,0.0727096,0.0925826,0.0,0.914493,0.0787934,-0.485141,-0.185359,-0.0110595,-0.336131,0.338236,-1.31668,-3.24201,-5.11337,0.0936051,0.0157947,425.28,0.554198,0.302733,0.393407,0.139809,0.105417,inf,inf,inf,inf,1,1,1,1,2,0,2,1,5,1,1,0
572997368,15251870,34.0348603,108.7564941,0.384401,0.20782,-1.22713,0.0727096,0.0925826,0.0,0.909515,0.0840975,-0.507853,-0.217228,-0.0110595,-0.336131,0.338236,-0.429062,0.488235,-4.29793,0.0930928,0.0157947,425.28,0.580848,0.293908,0.390867,0.135178,0.103949,inf,inf,inf,inf,1,1,1,1,2,0,2,1,5,1,1,0
573097454,15251870,34.0348603,108.7564941,0.470206,0.21886,-1.25812,0.0727096,0.0925826,0.0,0.896709,0.0713818,-0.53272,-0.252458,-0.0110595,-0.336131,0.338236,-0.834732,-2.88573,-7.68107,0.0904672,0.0157947,425.28,0.611842,0.302675,0.392639,0.139687,0.105314,inf,inf,inf,inf,1,1,1,1,2,0,2,1,5,1,1,0
573197545,15251870,34.0348603,108.7564941,0.55508,0.231948,-1.28941,0.0727096,0.0925826,0.0,0.882677,0.0950933,-0.537431,-0.264568,-0.0110595,-0.336131,0.338236,-1.15551,2.08895,-3.63984,0.0880682,0.0157947,425.28,0.643127,0.293701,0.390109,0.13489,0.10384,inf,inf,inf,inf,1,1,1,1,2,0,2,1,5,1,1,0
573297630,15251870,34.0348603,108.7564941,0.639713,0.247436,-1.32268,0.0727096,0.0925826,0.0,0.878854,0.0942553,-0.557469,-0.291348,-0.0110595,-0.336131,0.338236,-1.43525,0.563201,-2.50482,0.0857344,0.0157947,425.28,0.676396,0.30244,0.391878,0.139458,0.105203,inf,inf,inf,inf,1,1,1,1,2,0,2,1,5,1,1,0
573397716,15251870,34.0348603,108.7564941,0.726492,0.262678,-1.35579,0.0727096,0.0925826,0.0,0.873263,0.112276,-0.554172,-0.292306,-0.0110595,-0.336131,0.338236,-0.485386,5.75721,4.51669,0.0845806,0.0157947,425.28,0.709513,0.293558,0.389376,0.134944,0.103761,inf,inf,inf,inf,1,1,1,1,2,0,2,1,5,1,1,0
573497807,15251870,34.0348603,108.7564941,0.81409,0.276272,-1.38824,0.0727096,0.0925826,0.0,0.88095,0.109643,-0.535887,-0.278357,-0.0110595,-0.336131,0.338236,0.568629,2.41216,2.0351,0.0847409,0.0157947,425.28,0.741955,0.302288,0.391135,0.139572,0.105121,inf,inf,inf,inf,1,1,1,1,2,0,2,1,5,1,1,0
573597892,15251870,34.0348603,108.7564941,0.902744,0.290128,-1.41819,0.0727096,0.0925826,0.0,0.872363,0.0935088,-0.510488,-0.255272,-0.0110595,-0.336131,0.338236,1.34974,0.166071,6.04468,0.0896937,0.0157947,425.28,0.771906,0.293425,0.388662,0.134964,0.103698,inf,inf,inf,inf,1,1,1,1,2,0,2,1,5,1,1,0
573697979,15251870,34.0348603,108.7564941,0.990975,0.302597,-1.44829,0.0727096,0.0925826,0.0,0.875825,0.0951428,-0.493063,-0.241749,-0.0110595,-0.336131,0.338236,1.5466,-2.82929,5.62756,0.0932474,0.0157947,425.28,0.802009,0.302149,0.392873,0.139425,0.105328,inf,inf,inf,inf,1,1,1,1,2,0,2,1,5,1,1,0
573798067,15251870,34.0348603,108.7564941,1.07998,0.314565,-1.47165,0.0727096,0.0925826,0.0,0.881839,0.110438,-0.477278,-0.224628,-0.0110595,-0.336131,0.338236,2.02614,-0.409292,4.68125,0.0915339,0.0157947,425.28,0.825371,0.29322,0.390374,0.134758,0.103898,inf,inf,inf,inf,1,1,1,1,2,0,2,1,5,1,1,0
573898155,15251870,34.0348603,108.7564941,1.16885,0.326908,-1.49681,0.0727096,0.0925826,0.0,0.871723,0.114113,-0.476681,-0.225653,-0.0110595,-0.336131,0.338236,1.98687,-0.618183,7.06992,0.0921198,0.0157947,425.28,0.850526,0.301934,0.392157,0.139228,0.105266,inf,inf,inf,inf,1,1,1,1,2,0,2,1,5,1,1,0
573998253,15251870,34.0348603,108.7564941,1.25713,0.339554,-1.52102,0.0727096,0.0925826,0.0,0.874524,0.109577,-0.477178,-0.225885,-0.0110595,-0.336131,0.338236,1.43108,-2.57143,4.98606,0.0920475,0.0157947,425.28,0.874735,0.292925,0.389663,0.134599,0.103837,inf,inf,inf,inf,1,1,1,1,2,0,2,1,5,1,1,0
574098331,15251870,34.0348603,108.7564941,1.34556,0.350458,-1.54544,0.0727096,0.0925826,0.0,0.865689,0.0852463,-0.473902,-0.22447,-0.0110595,-0.336131,0.338236,0.101431,-0.499132,-1.28504,0.0981675,0.0157947,425.28,0.899163,0.301629,0.391436,0.139204,0.105201,inf,inf,inf,inf,1,1,1,1,2,0,2,1,5,1,1,0
574198419,15251870,34.0348603,108.7564941,1.43592,0.354567,-1.55914,0.0727096,0.0925826,0.0,0.875072,0.063598,-0.392308,-0.13806,-0.0110595,-0.336131,0.338236,0.129147,1.73689,4.60365,0.106588,0.0157947,425.28,0.912856,0.292575,0.388963,0.13456,0.103776,inf,inf,inf,inf,1,1,1,1,2,0,2,1,5,1,1,0
574298508,15251870,34.0348603,108.7564941,1.52741,0.356791,-1.57081,0.0727096,0.0925826,0.0,0.878623,0.0414856,-0.388376,-0.131991,-0.0110595,-0.336131,0.338236,-1.01795,-0.188404,-3.43797,0.114167,0.0157947,425.28,0.924528,0.30127,0.390727,0.138904,0.105136,inf,inf,inf,inf,1,1,1,1,2,0,2,1,5,1,1,0
574398597,15251870,34.0348603,108.7564941,1.61713,0.357642,-1.57898,0.0727096,0.0925826,0.0,0.884614,0.0484252,-0.34908,-0.0906611,-0.0110595,-0.336131,0.338236,-0.828027,5.23181,-0.282553,0.119001,0.0157947,425.28,0.932695,0.292073,0.39067,0.134209,0.103959,inf,inf,inf,inf,1,1,1,1,2,0,2,1,5,1,1,0
574498682,15251870,34.0348603,108.7564941,1.70773,0.359458,-1.58441,0.0727096,0.0925826,0.0,0.901845,0.0473839,-0.289098,-0.0312965,-0.0110595,-0.336131,0.338236,-0.344036,-3.27492,-1.24786,0.121634,0.0157947,425.28,0.93813,0.300742,0.392466,0.138574,0.105329,inf,inf,inf,inf,1,1,1,1,2,0,2,1,5,1,1,0
574598770,15251870,34.0348603,108.7564941,1.79956,0.362496,-1.58279,0.0727096,0.0925826,0.0,0.893931,0.0711564,-0.275726,-0.0135555,-0.0110595,-0.336131,0.338236,1.49169,-2.24641,5.18542,0.121656,0.0157947,425.28,0.936507,0.291588,0.389971,0.133923,0.103898,inf,inf,inf,inf,1,1,1,1,2,0,2,1,5,1,1,0
574698857,15251870,34.0348603,108.7564941,1.89114,0.365986,-1.58393,0.0727096,0.0925826,0.0,0.888369,0.0673483,-0.292653,-0.0293663,-0.0110595,-0.336131,0.338236,0.415158,2.96805,2.03978,0.121053,0.0157947,425.28,0.937644,0.30024,0.391757,0.13829,0.105266,inf,inf,inf,inf,1,1,1,1,2,0,2,1,5,1,1,0
574798945,15251870,34.0348603,108.7564941,1.98136,0.366042,-1.58308,0.0727096,0.0925826,0.0,0.894264,0.0763594,-0.298964,-0.0321783,-0.0110595,-0.336131,0.338236,-0.201297,2.45674,-0.476857,0.120911,0.0157947,425.28,0.936798,0.291065,0.389275,0.133881,0.103837,inf,inf,inf,inf,1,1,1,1,2,0,2,1,5,1,1,0
574899033,15251870,34.0348603,108.7564941,2.07137,0.368009,-1.58225,0.0727096,0.0925826,0.0,0.89993,0.0731817,-0.25747,0.0110624,-0.0110595,-0.336131,0.338236,0.351057,-1.4061,2.63319,0.118996,0.0157947,425.28,0.935964,0.299714,0.391051,0.138419,0.105201,inf,inf,inf,inf,1,1,1,1,2,0,2,1,5,1,1,0
574999121,15251870,34.0348603,108.7564941,2.16332,0.365484,-1.57251,0.0727096,0.0925826,0.0,0.916164,0.0644177,-0.226732,0.0480411,-0.0110595,-0.336131,0.338236,0.87982,-0.923069,-0.108382,0.122411,0.0157947,425.28,0.926226,0.290523,0.388581,0.133889,0.103774,inf,inf,inf,inf,1,1,1,1,2,0,2,1,5,1,1,0
575099209,15251870,34.0348603,108.7564941,2.25576,0.364717,-1.56164,0.0727096,0.0925826,0.0,0.910402,0.0798613,-0.185378,0.0929879,-0.0110595,-0.336131,0.338236,-0.0382189,-0.623669,3.37083,0.130745,0.0157947,425.28,0.915357,0.299167,0.392807,0.13828,0.105408,inf,inf,inf,inf,1,1,1,1,2,0,2,1,5,1,1,0
575199297,15251870,34.0348603,108.7564941,2.34833,0.368424,-1.54764,0.0727096,0.0925826,0.0,0.914775,0.0991145,-0.21907,0.0637155,-0.0110595,-0.336131,0.338236,-1.41422,0.89777,-2.71626,0.141619,0.0157947,425.28,0.901354,0.289909,0.390303,0.133654,0.103961,inf,inf,inf,inf,1,1,1,1,2,0,2,1,5,1,1,0
575299385,15251870,34.0348603,108.7564941,2.44049,0.37715,-1.54213,0.0727096,0.0925826,0.0,0.913896,0.139863,-0.296866,-0.0129636,-0.0110595,-0.336131,0.338236,0.0566611,0.398506,-4.33677,0.153532,0.0157947,425.28,0.895853,0.298535,0.392085,0.138086,0.105327,inf,inf,inf,inf,1,1,1,1,2,0,2,1,5,1,1,0
575399472,15251870,34.0348603,108.7564941,2.53098,0.388496,-1.53987,0.0727096,0.0925826,0.0,0.919545,0.167119,-0.330519,-0.0431679,-0.0110595,-0.336131,0.338236,0.28325,-2.88443,1.05025,0.161154,0.0157947,425.28,0.893591,0.289281,0.389578,0.13376,0.103879,inf,inf,inf,inf,1,1,1,1,2,0,2,1,5,1,1,0
575499560,15251870,34.0348603,108.7564941,2.62112,0.40553,-1.54355,0.0727096,0.0925826,0.0,0.908776,0.240612,-0.380521,-0.0914281,-0.0110595,-0.336131,0.338236,1.03737,-3.49534,3.53968,0.16754,0.0157947,425.28,0.897273,0.297913,0.391342,0.13849,0.105239,inf,inf,inf,inf,1,1,1,1,2,0,2,1,5,1,1,0
575599648,15251870,34.0348603,108.7564941,2.71194,0.425201,-1.54842,0.0727096,0.0925826,0.0,0.906144,0.335863,-0.502774,-0.204356,-0.0110595,-0.336131,0.338236,-1.77452,3.83585,-6.44147,0.170544,0.0157947,425.28,0.902134,0.288637,0.388849,0.134112,0.103795,inf,inf,inf,inf,1,1,1,1,2,0,2,1,5,1,1,0
575699736,15251870,34.0348603,108.7564941,2.80324,0.452332,-1.56266,0.0727096,0.0925826,0.0,0.91111,0.388169,-0.561944,-0.255999,-0.0110595,-0.336131,0.338236,1.16857,-4.71412,2.03164,0.169298,0.0157947,425.28,0.916377,0.297278,0.393066,0.139087,0.105424,inf,inf,inf,inf,1,1,1,1,2,0,2,1,5,1,1,0
575799824,15251870,34.0348603,108.7564941,2.89434,0.4866,-1.57166,0.0727096,0.0925826,0.0,0.90506,0.504401,-0.609692,-0.285627,-0.0110595,-0.336131,0.338236,0.304689,3.91257,3.89282,0.163889,0.0157947,425.28,0.925377,0.288106,0.390556,0.134774,0.103983,inf,inf,inf,inf,1,1,1,1,2,0,2,1,5,1,1,0
575899911,15251870,34.0348603,108.7564941,2.9858,0.529982,-1.58648,0.0727096,0.0925826,0.0,0.90374,0.532027,-0.625588,-0.289692,-0.0110595,-0.336131,0.338236,-0.271665,-2.37728,-1.81962,0.157272,0.0157947,425.28,0.940194,0.296779,0.39234,0.139689,0.105349,inf,inf,inf,inf,1,1,1,1,2,0,2,1,5,1,1,0
575999999,15251870,34.0348603,108.7564941,3.078,0.57377,-1.59346,0.0727096,0.0925826,0.0,0.904146,0.57203,-0.593944,-0.239916,-0.0110595,-0.336131,0.338236,0.333444,1.7603,-0.168584,0.153294,0.0157947,425.28,0.94718,0.287599,0.389835,0.135349,0.10391,inf,inf,inf,inf,1,1,1,1,2,0,2,1,5,1,1,0
576100087,15251870,34.0348603,108.7564941,3.1694,0.620615,-1.60433,0.0727096,0.0925826,0.0,0.885874,0.575176,-0.600785,-0.236776,-0.0110595,-0.336131,0.338236,-0.937706,2.83174,-3.30173,0.148951,0.0157947,425.28,0.958046,0.296287,0.39161,0.139845,0.105273,inf,inf,inf,inf,1,1,1,1,2,0,2,1,5,1,1,0
576200175,15251870,34.0348603,108.7564941,3.26012,0.661528,-1.60875,0.0727096,0.0925826,0.0,0.888495,0.532457,-0.562418,-0.184893,-0.0110595,-0.336131,0.338236,-0.518458,0.259028,5.42614,0.143225,0.0157947,425.28,0.96247,0.28711,0.389126,0.135095,0.103842,inf,inf,inf,inf,1,1,1,1,2,0,2,1,5,1,1,0
576300269,15251870,34.0348603,108.7564941,3.35008,0.699621,-1.61826,0.0727096,0.0925826,0.0,0.877798,0.46617,-0.575498,-0.191721,-0.0110595,-0.336131,0.338236,-1.70111,-1.18826,-3.99365,0.137851,0.0157947,425.28,0.971979,0.295801,0.390891,0.139615,0.105202,inf,inf,inf,inf,1,1,1,1,2,0,2,1,5,1,1,0
576400351,15251870,34.0348603,108.7564941,3.43856,0.733099,-1.62944,0.0727096,0.0925826,0.0,0.879843,0.409367,-0.549523,-0.16102,-0.0110595,-0.336131,0.338236,0.826486,-5.90884,5.99288,0.13214,0.0157947,425.28,0.983159,0.286294,0.390808,0.134653,0.103978,inf,inf,inf,inf,1,1,1,1,2,0,2,1,5,1,1,0
576500440,15251870,34.0348603,108.7564941,3.52663,0.759809,-1.63856,0.0727096,0.0925826,0.0,0.875544,0.338138,-0.573195,-0.179784,-0.0110595,-0.336131,0.338236,-0.258926,-2.58583,-5.89548,0.129663,0.0157947,425.28,0.992279,0.294952,0.392602,0.13917,0.105343,inf,inf,inf,inf,1,1,1,1,2,0,2,1,5,1,1,0
576600526,15251870,34.0348603,108.7564941,3.61384,0.782111,-1.64923,0.0727096,0.0925826,0.0,0.881796,0.287787,-0.522993,-0.128401,-0.0110595,-0.336131,0.338236,1.11567,-0.249475,3.68942,0.131697,0.0157947,425.28,1.00295,0.285427,0.390066,0.134207,0.103842,inf,inf,inf,inf,1,1,1,1,2,0,2,1,5,1,1,0
576700614,15251870,34.0348603,108.7564941,3.69956,0.799394,-1.65752,0.0727096,0.0925826,0.0,0.877121,0.204688,-0.521611,-0.125213,-0.0110595,-0.336131,0.338236,-0.126103,-2.72387,-3.81986,0.130206,0.0157947,425.28,1.01124,0.294048,0.391847,0.138625,0.105204,inf,inf,inf,inf,1,1,1,1,2,0,2,1,5,1,1,0
576800702,15251870,34.0348603,108.7564941,3.78593,0.810224,-1.67096,0.0727096,0.0925826,0.0,0.885047,0.135555,-0.503945,-0.111689,-0.0110595,-0.336131,0.338236,-0.0357928,1.76686,1.24799,0.127977,0.0157947,425.28,1.02468,0.284479,0.389329,0.133612,0.103699,inf,inf,inf,inf,1,1,1,1,2,0,2,1,5,1,1,0
576900789,15251870,34.0348603,108.7564941,3.87366,0.810978,-1.67705,0.0727096,0.0925826,0.0,0.896474,0.0329239,-0.450259,-0.0578044,-0.0110595,-0.336131,0.338236,-0.268823,0.0379619,6.44416,0.125955,0.0157947,425.28,1.03077,0.293055,0.391087,0.138075,0.105056,inf,inf,inf,inf,1,1,1,1,2,0,2,1,5,1,1,0
577000877,15251870,34.0348603,108.7564941,3.96076,0.806794,-1.68513,0.0727096,0.0925826,0.0,0.901117,-0.0511932,-0.40987,-0.0230465,-0.0110595,-0.336131,0.338236,1.13278,-4.35827,3.5581,0.125386,0.0157947,425.28,1.03885,0.283513,0.390988,0.133074,0.103814,inf,inf,inf,inf,1,1,1,1,2,0,2,1,5,1,1,0
577100965,15251870,34.0348603,108.7564941,4.04319,0.799828,-1.69131,0.0727096,0.0925826,0.0,0.902509,-0.112969,-0.40678,-0.0258606,-0.0110595,-0.336131,0.338236,-0.547313,3.16511,0.343747,0.123473,0.0157947,425.28,1.04503,0.292046,0.392765,0.137573,0.105174,inf,inf,inf,inf,1,1,1,1,2,0,2,1,5,1,1,0
577201053,15251870,34.0348603,108.7564941,4.1279,0.787021,-1.70129,0.0727096,0.0925826,0.0,0.903139,-0.156533,-0.429121,-0.0567209,-0.0110595,-0.336131,0.338236,0.134179,-0.269471,-1.63377,0.12146,0.0157947,425.28,1.055,0.301106,0.394594,0.141982,0.106521,inf,inf,inf,inf,1,1,1,1,2,0,2,1,5,1,1,0
577301143,15251870,34.0348603,108.7564941,4.20415,0.776397,-1.72163,0.0727096,0.0925826,0.0,0.894307,-0.167686,-0.462463,-0.104343,-0.0110595,-0.336131,0.338236,0.960401,-5.57981,0.128095,0.116268,0.0157947,425.28,1.07535,0.290875,0.39196,0.136869,0.105005,inf,inf,inf,inf,1,1,1,1,2,0,2,1,5,1,1,0
577401231,15251870,34.0348603,108.7564941,4.283,0.764923,-1.74659,0.0727096,0.0925826,0.0,0.896627,-0.148734,-0.480723,-0.137394,-0.0110595,-0.336131,0.338236,1.23916,-0.723746,3.26286,0.112223,0.0157947,425.28,1.10031,0.281439,0.389433,0.132195,0.103515,inf,inf,inf,inf,1,1,1,1,2,0,2,1,5,1,1,0
577501316,15251870,34.0348603,108.7564941,4.35975,0.756535,-1.77546,0.0727096,0.0925826,0.0,0.895555,-0.129619,-0.514403,-0.183663,-0.0110595,-0.336131,0.338236,2.13089,0.00486595,4.12917,0.109382,0.0157947,425.28,1.12917,0.2899,0.391182,0.136785,0.104876,inf,inf,inf,inf,1,1,1,1,2,0,2,1,5,1,1,0
577601404,15251870,34.0348603,108.7564941,4.43742,0.748388,-1.80896,0.0727096,0.0925826,0.0,0.877331,-0.108434,-0.533002,-0.215208,-0.0110595,-0.336131,0.338236,0.766649,1.51965,8.11684,0.106285,0.0157947,425.28,1.16268,0.280585,0.388679,0.132273,0.103405,inf,inf,inf,inf,1,1,1,1,2,0,2,1,5,1,1,0
577701492,15251870,34.0348603,108.7564941,4.51235,0.742386,-1.84566,0.0727096,0.0925826,0.0,0.858663,-0.0807752,-0.577848,-0.272794,-0.0110595,-0.336131,0.338236,0.0182052,-0.862311,-4.05599,0.103885,0.0157947,425.28,1.19938,0.289044,0.392868,0.136911,0.105031,inf,inf,inf,inf,1,1,1,1,2,0,2,1,5,1,1,0
577801580,15251870,34.0348603,108.7564941,4.58745,0.736548,-1.88632,0.0727096,0.0925826,0.0,0.837113,-0.05905,-0.601372,-0.308583,-0.0110595,-0.336131,0.338236,0.562207,-0.149465,-0.892601,0.102783,0.0157947,425.28,1.24004,0.279752,0.390342,0.132318,0.103558,inf,inf,inf,inf,1,1,1,1,2,0,2,1,5,1,1,0
577901667,15251870,34.0348603,108.7564941,4.66052,0.73159,-1.93001,0.0727096,0.0925826,0.0,0.808952,0.0177608,-0.60106,-0.320398,-0.0110595,-0.336131,0.338236,0.13365,2.53385,4.72068,0.101621,0.0157947,425.28,1.28373,0.288207,0.392101,0.136886,0.104922,inf,inf,inf,inf,1,1,1,1,2,0,2,1,5,1,1,0
578001755,15251870,34.0348603,108.7564941,4.73493,0.731402,-1.97254,0.0727096,0.0925826,0.0,0.785409,0.0538277,-0.642498,-0.369358,-0.0110595,-0.336131,0.338236,-1.1485,0.347177,0.20646,0.0975197,0.0157947,425.28,1.32625,0.278996,0.389592,0.132247,0.103453,inf,inf,inf,inf,1,1,1,1,2,0,2,1,5,1,1,0
578101849,15251870,34.0348603,108.7564941,4.81015,0.73156,-2.01317,0.0727096,0.0925826,0.0,0.773068,0.0886389,-0.628213,-0.358919,-0.0110595,-0.336131,0.338236,-0.117777,-1.23926,-1.91936,0.0971447,0.0157947,425.28,1.36688,0.28745,0.391339,0.136909,0.104812,inf,inf,inf,inf,1,1,1,1,2,0,2,1,5,1,1,0
578201933,15251870,34.0348603,108.7564941,4.88661,0.7348,-2.04898,0.0727096,0.0925826,0.0,0.755209,0.102617,-0.625484,-0.357325,-0.0110595,-0.336131,0.338236,-1.61449,-2.94051,-6.41287,0.0961652,0.0157947,425.28,1.4027,0.278193,0.388839,0.132184,0.103335,inf,inf,inf,inf,1,1,1,1,2,0,2,1,5,1,1,0
578302018,15251870,34.0348603,108.7564941,4.96541,0.732935,-2.07887,0.0727096,0.0925826,0.0,0.746848,0.111432,-0.595225,-0.323073,-0.0110595,-0.336131,0.338236,-0.0322995,-0.187497,0.403583,0.0941972,0.0157947,425.28,1.43259,0.286636,0.390574,0.13649,0.104693,inf,inf,inf,inf,1,1,1,1,2,0,2,1,5,1,1,0
578402106,15251870,34.0348603,108.7564941,5.04291,0.730811,-2.10596,0.0727096,0.0925826,0.0,0.737398,0.115294,-0.597126,-0.318798,-0.0110595,-0.336131,0.338236,-0.631073,1.66015,1.9481,0.0915321,0.0157947,425.28,1.45968,0.277517,0.390513,0.131766,0.103498,inf,inf,inf,inf,1,1,1,1,2,0,2,1,5,1,1,0
578502193,15251870,34.0348603,108.7564941,5.11962,0.722176,-2.12894,0.0727096,0.0925826,0.0,0.728365,0.0889522,-0.613039,-0.32623,-0.0110595,-0.336131,0.338236,-1.4643,5.38615,-1.60728,0.0852715,0.0157947,425.28,1.48266,0.285955,0.392278,0.13637,0.104868,inf,inf,inf,inf,1,1,1,1,2,0,2,1,5,1,1,0
578602283,15251870,34.0348603,108.7564941,5.19298,0.713281,-2.15877,0.0727096,0.0925826,0.0,0.729185,0.0606161,-0.650112,-0.359233,-0.0110595,-0.336131,0.338236,0.256789,0.693059,-1.17533,0.0693035,0.0157947,425.28,1.51249,0.276863,0.389754,0.131715,0.103403,inf,inf,inf,inf,1,1,1,1,2,0,2,1,5,1,1,0
578702372,15251870,34.0348603,108.7564941,5.26076,0.700552,-2.19352,0.0727096,0.0925826,0.0,0.70208,0.0433075,-0.699752,-0.406374,-0.0110595,-0.336131,0.338236,-1.097,4.39829,-8.51705,0.0365916,0.0157947,425.28,1.54724,0.285302,0.391466,0.136353,0.104758,inf,inf,inf,inf,1,1,1,1,2,0,2,1,5,1,1,0
578802466,15251870,34.0348603,108.7564941,5.32645,0.688734,-2.22798,0.0727096,0.0925826,0.0,0.692526,0.018263,-0.657834,-0.361868,-0.0110595,-0.336131,0.338236,-0.468965,-2.18934,0.898086,0.0126239,0.0157947,425.28,1.5817,0.276233,0.391376,0.131889,0.103556,inf,inf,inf,inf,1,1,1,1,2,0,2,1,5,1,1,0
578902544,15251870,34.0348603,108.7564941,5.38925,0.677113,-2.25795,0.0727096,0.0925826,0.0,0.690007,0.0228286,-0.610224,-0.310892,-0.0110595,-0.336131,0.338236,-0.852668,0.868834,1.61841,0.0014891,0.0157947,425.28,1.61167,0.284685,0.393119,0.136342,0.104921,inf,inf,inf,inf,1,1,1,1,2,0,2,1,5,1,1,0
579002632,15251870,34.0348603,108.7564941,5.45354,0.668425,-2.28494,0.0727096,0.0925826,0.0,0.69086,0.0114399,-0.555035,-0.254525,-0.0110595,-0.336131,0.338236,-0.51239,1.44712,1.92325,-0.0059427,0.0157947,425.28,1.63866,0.275717,0.390575,0.131745,0.103466,inf,inf,inf,inf,1,1,1,1,2,0,2,1,5,1,1,0
579102720,15251870,34.0348603,108.7564941,5.51916,0.661716,-2.30768,0.0727096,0.0925826,0.0,0.692055,0.0194229,-0.542565,-0.241234,-0.0110595,-0.336131,0.338236,-0.526139,1.03882,-4.73581,-0.00904103,0.0157947,425.28,1.6614,0.284172,0.392307,0.136102,0.10483,inf,inf,inf,inf,1,1,1,1,2,0,2,1,5,1,1,0
579202811,15251870,34.0348603,108.7564941,5.58559,0.657879,-2.33037,0.0727096,0.0925826,0.0,0.695215,0.0359183,-0.544151,-0.243176,-0.0110595,-0.336131,0.338236,-0.442699,3.78265,-4.79187,-0.0109292,0.0157947,425.28,1.68409,0.274965,0.38977,0.131186,0.103343,inf,inf,inf,inf,1,1,1,1,2,0,2,1,5,1,1,0
579302896,15251870,34.0348603,108.7564941,5.65024,0.652207,-2.36056,0.0727096,0.0925826,0.0,0.683092,0.0489418,-0.592242,-0.295875,-0.0110595,-0.336131,0.338236,0.217942,3.57229,-0.458174,0.0119042,0.0237014,425.28,1.71427,0.283359,0.391491,0.132994,0.104706,inf,inf,inf,inf,1,1,1,1,2,0,2,1,6,1,1,0
579402983,15251870,34.0348603,108.7564941,5.71534,0.647539,-2.3942,0.0727096,0.0925826,0.0,0.681168,0.0550566,-0.659489,-0.364785,-0.0110595,-0.336131,0.338236,-0.0798676,-1.42196,-2.05436,0.0136414,0.0237014,425.28,1.74791,0.274571,0.388984,0.125914,0.103274,inf,inf,inf,inf,1,1,1,1,2,0,2,1,6,1,1,0
579503071,15251870,34.0348603,108.7564941,5.78096,0.643142,-2.43083,0.0727096,0.0925826,0.0,0.674551,0.063063,-0.708251,-0.412231,-0.0110595,-0.336131,0.338236,-0.608106,1.50981,-0.852157,0.0155245,0.0237014,425.28,1.78455,0.282706,0.393161,0.127647,0.104923,inf,inf,inf,inf,1,1,1,1,2,0,2,1,6,1,1,0
579603159,15251870,34.0348603,108.7564941,5.84775,0.639794,-2.46664,0.0727096,0.0925826,0.0,0.670595,0.073147,-0.740686,-0.438218,-0.0110595,-0.336131,0.338236,1.11543,-1.57935,-1.07605,0.0181159,0.0237014,425.28,1.82036,0.274039,0.390632,0.122151,0.103501,inf,inf,inf,inf,1,1,1,1,2,0,2,1,6,1,1,0
579703257,15251870,34.0348603,108.7564941,5.91497,0.63902,-2.50016,0.0727096,0.0925826,0.0,0.659932,0.120848,-0.783687,-0.468812,-0.0110595,-0.336131,0.338236,-0.126585,0.400739,0.615544,0.0193915,0.0237014,425.28,1.85387,0.281935,0.392375,0.124728,0.104907,inf,inf,inf,inf,1,1,1,1,2,0,2,1,6,1,1,0
579803334,15251870,34.0348603,108.7564941,5.98246,0.645926,-2.53568,0.0727096,0.0925826,0.0,0.657393,0.189596,-0.814894,-0.487267,-0.0110595,-0.336131,0.338236,1.85564,-1.57983,0.163063,0.0204923,0.0237014,425.28,1.8894,0.273325,0.389856,0.120586,0.103487,inf,inf,inf,inf,1,1,1,1,2,0,2,1,6,1,1,0
579903428,15251870,34.0348603,108.7564941,6.05011,0.655261,-2.5679,0.0727096,0.0925826,0.0,0.641049,0.217621,-0.8427,-0.497734,-0.0110595,-0.336131,0.338236,0.746863,-2.60771,3.45594,0.0245198,0.0237014,425.28,1.92162,0.281015,0.39159,0.124439,0.104906,inf,inf,inf,inf,1,1,1,1,2,0,2,1,6,1,1,0
580003510,15251870,34.0348603,108.7564941,6.11755,0.666929,-2.60267,0.0727096,0.0925826,0.0,0.629255,0.259308,-0.894126,-0.531957,-0.0110595,-0.336131,0.338236,-0.0465764,0.111899,2.44816,0.0290848,0.0237014,425.28,1.95638,0.272556,0.389094,0.12163,0.103504,inf,inf,inf,inf,1,1,1,1,2,0,2,1,6,1,1,0
580103599,15251870,34.0348603,108.7564941,6.18528,0.679102,-2.63587,0.0727096,0.0925826,0.0,0.620112,0.258868,-0.933034,-0.550679,-0.0110595,-0.336131,0.338236,-0.00903852,-2.67564,1.54942,0.0298532,0.0237014,425.28,1.98959,0.280101,0.390819,0.126322,0.104931,inf,inf,inf,inf,1,1,1,1,2,0,2,1,6,1,1,0
580203688,15251870,34.0348603,108.7564941,6.2546,0.690845,-2.67259,0.0727096,0.0925826,0.0,0.616557,0.239989,-0.956409,-0.555952,-0.0110595,-0.336131,0.338236,-1.54175,-1.14927,-1.39559,0.0292174,0.0237014,425.28,2.02631,0.271746,0.390752,0.124133,0.103803,inf,inf,inf,inf,1,1,1,1,2,0,2,1,6,1,1,0
580303773,15251870,34.0348603,108.7564941,6.32711,0.701163,-2.70467,0.0727096,0.0925826,0.0,0.62386,0.232276,-0.953597,-0.533007,-0.0110595,-0.336131,0.338236,-1.32893,2.87272,-1.02027,0.0291643,0.0237014,425.28,2.05839,0.27921,0.392484,0.128495,0.10525,inf,inf,inf,inf,1,1,1,1,2,0,2,1,6,1,1,0
580403860,15251870,34.0348603,108.7564941,6.39817,0.711287,-2.73535,0.0727096,0.0925826,0.0,0.627167,0.215146,-0.92111,-0.483358,-0.0110595,-0.336131,0.338236,-1.21451,1.66806,-4.00782,0.0294126,0.0237014,425.28,2.08907,0.270886,0.38996,0.125184,0.10384,inf,inf,inf,inf,1,1,1,1,2,0,2,1,6,1,1,0
580503948,15251870,34.0348603,108.7564941,6.46842,0.71834,-2.75441,0.0727096,0.0925826,0.0,0.644093,0.181716,-0.819564,-0.361271,-0.0110595,-0.336131,0.338236,-0.325489,-1.08875,3.19728,0.0288215,0.0237014,425.28,2.10813,0.278302,0.391668,0.129698,0.105289,inf,inf,inf,inf,1,1,1,1,2,0,2,1,6,1,1,0
580604036,15251870,34.0348603,108.7564941,6.54266,0.723054,-2.76722,0.0727096,0.0925826,0.0,0.696503,0.165029,-0.749026,-0.275224,-0.0110595,-0.336131,0.338236,0.0849634,1.68206,-3.18923,0.0283477,0.0237014,425.28,2.12094,0.270034,0.391573,0.126586,0.104134,inf,inf,inf,inf,1,1,1,1,2,0,2,1,6,1,1,0
580694115,15251870,34.0348603,108.7564941,6.6162,0.721826,-2.76818,0.0727096,0.0925826,0.0,0.740928,0.145347,-0.676002,-0.18664,-0.0110595,-0.336131,0.338236,0.661962,1.47367,-0.960364,0.0265632,0.0237014,425.28,2.12189,0.276676,0.392636,0.130841,0.105399,inf,inf,inf,inf,1,1,1,1,2,0,2,1,6,1,1,0
580804213,15251870,34.0348603,108.7564941,6.70887,0.722178,-2.77257,0.0727096,0.0925826,0.0,0.817573,0.1231,-0.604421,-0.107212,-0.0110595,-0.336131,0.338236,1.11611,-2.51645,4.50071,0.0251935,0.0237014,425.28,2.12629,0.269209,0.390755,0.12799,0.104174,inf,inf,inf,inf,1,1,1,1,2,0,2,1,6,1,1,0
580904299,15251870,34.0348603,108.7564941,6.79725,0.722888,-2.77136,0.0727096,0.0925826,0.0,0.890578,0.118486,-0.534025,-0.0322984,-0.0110595,-0.336131,0.338236,-0.0885701,-2.7335,1.7711,0.0230595,0.0237014,425.28,2.12508,0.276595,0.39249,0.133103,0.105638,inf,inf,inf,inf,1,1,1,1,2,0,2,1,6,1,1,0
581004387,15251870,34.0348603,108.7564941,6.89303,0.725334,-2.76688,0.0727096,0.0925826,0.0,0.961962,0.110311,-0.486595,0.0155089,-0.0110595,-0.336131,0.338236,0.503445,-3.86521,-5.4708,0.0227466,0.0237014,425.28,2.1206,0.268401,0.389956,0.130304,0.104214,inf,inf,inf,inf,1,1,1,1,2,0,2,1,6,1,1,0
581104476,15251870,34.0348603,108.7564941,6.99527,0.726522,-2.7535,0.0727096,0.0925826,0.0,1.0063,0.0996983,-0.410934,0.0946366,-0.0110595,-0.336131,0.338236,0.972222,-4.55666,3.23254,0.0237851,0.0237014,425.28,2.10722,0.275866,0.391676,0.135817,0.105686,inf,inf,inf,inf,1,1,1,1,2,0,2,1,6,1,1,0
581194553,15251870,34.0348603,108.7564941,7.09016,0.730035,-2.74395,0.0727096,0.0925826,0.0,1.04061,0.102537,-0.370365,0.131707,-0.0110595,-0.336131,0.338236,-0.374539,2.00503,3.13268,0.0231826,0.0237014,425.28,2.09767,0.28304,0.395286,0.140773,0.107225,inf,inf,inf,inf,1,1,1,1,2,0,2,1,6,1,1,0
581304649,15251870,34.0348603,108.7564941,7.20499,0.727339,-2.71753,0.0727096,0.0925826,0.0,1.06592,0.0747151,-0.351878,0.156037,-0.0110595,-0.336131,0.338236,-1.78979,-2.19231,-5.78831,0.0269651,0.0237014,425.28,2.07125,0.275107,0.390868,0.137992,0.105716,inf,inf,inf,inf,1,1,1,1,2,0,2,1,6,1,1,0
581394729,15251870,34.0348603,108.7564941,7.30011,0.725948,-2.69794,0.0727096,0.0925826,0.0,1.06788,0.0741239,-0.335381,0.172974,-0.0110595,-0.336131,0.338236,-0.581271,-0.494467,-2.99201,0.0305322,0.0237014,425.28,2.05166,0.266217,0.390135,0.134038,0.104354,inf,inf,inf,inf,1,1,1,1,2,0,2,1,6,1,1,0
581504825,15251870,34.0348603,108.7564941,7.41726,0.720952,-2.66847,0.0727096,0.0925826,0.0,1.06951,0.0761802,-0.292397,0.218884,-0.0110595,-0.336131,0.338236,-0.856383,4.38156,-5.13032,0.0344804,0.0237014,425.28,2.02219,0.274622,0.392539,0.140064,0.106046,inf,inf,inf,inf,1,1,1,1,2,0,2,1,6,1,1,0
581604913,15251870,34.0348603,108.7564941,7.52141,0.719274,-2.64728,0.0727096,0.0925826,0.0,1.04937,0.0697927,-0.252322,0.252221,-0.0110595,-0.336131,0.338236,-0.214221,1.90473,4.56062,0.0376843,0.0237014,425.28,2.00099,0.266512,0.390023,0.136364,0.104628,inf,inf,inf,inf,1,1,1,1,2,0,2,1,6,1,1,0
581694992,15251870,34.0348603,108.7564941,7.61131,0.719397,-2.63375,0.0727096,0.0925826,0.0,1.0193,0.0657603,-0.265495,0.227021,-0.0110595,-0.336131,0.338236,-1.0592,5.11157,-2.58278,0.0408353,0.0237014,425.28,1.98747,0.273521,0.391098,0.141331,0.105919,inf,inf,inf,inf,1,1,1,1,2,0,2,1,6,1,1,0
581805090,15251870,34.0348603,108.7564941,7.7206,0.717473,-2.61624,0.0727096,0.0925826,0.0,0.999998,0.0414614,-0.222512,0.257107,-0.0110595,-0.336131,0.338236,-0.0811619,-0.374236,3.43659,0.0440219,0.0237014,425.28,1.96996,0.266167,0.389265,0.13787,0.104698,inf,inf,inf,inf,1,1,1,1,2,0,2,1,6,1,1,0
581895167,15251870,34.0348603,108.7564941,7.81025,0.713511,-2.60055,0.0727096,0.0925826,0.0,0.980695,0.0398951,-0.221661,0.247862,-0.0110595,-0.336131,0.338236,-1.40615,1.88144,-6.66508,0.0441599,0.0237014,425.28,1.95427,0.27331,0.392789,0.142817,0.106252,inf,inf,inf,inf,1,1,1,1,2,0,2,1,6,1,1,0
582005269,15251870,34.0348603,108.7564941,7.92057,0.709776,-2.57993,0.0727096,0.0925826,0.0,0.985909,0.036498,-0.166413,0.290713,-0.0110595,-0.336131,0.338236,0.122843,4.45649,2.67823,0.0437352,0.0237014,425.28,1.93364,0.265858,0.390904,0.138962,0.104996,inf,inf,inf,inf,1,1,1,1,2,0,2,1,6,1,1,0
582095343,15251870,34.0348603,108.7564941,8.01521,0.706238,-2.55578,0.0727096,0.0925826,0.0,1.00497,0.0322778,-0.160655,0.291854,-0.0110595,-0.336131,0.338236,0.0889374,3.13532,-2.05412,0.0441897,0.0237014,425.28,1.9095,0.273124,0.391993,0.143784,0.106292,inf,inf,inf,inf,1,1,1,1,2,0,2,1,6,1,1,0
582195432,15251870,34.0348603,108.7564941,8.12243,0.702854,-2.53079,0.0727096,0.0925826,0.0,1.02475,0.0193064,-0.132952,0.31147,-0.0110595,-0.336131,0.338236,-0.423728,0.618024,3.22794,0.044351,0.0237014,425.28,1.88451,0.264788,0.389475,0.139139,0.104834,inf,inf,inf,inf,1,1,1,1,2,0,2,1,6,1,1,0
582305526,15251870,34.0348603,108.7564941,8.246,0.695626,-2.49679,0.0727096,0.0925826,0.0,1.04782,-0.000488101,-0.132406,0.308517,-0.0110595,-0.336131,0.338236,-1.47836,-2.03902,-7.27847,0.0461642,0.0237014,425.28,1.85051,0.273808,0.391888,0.14504,0.106534,inf,inf,inf,inf,1,1,1,1,2,0,2,1,6,1,1,0
582395604,15251870,34.0348603,108.7564941,8.34699,0.690915,-2.46991,0.0727096,0.0925826,0.0,1.05772,-0.00626379,-0.0940104,0.341647,-0.0110595,-0.336131,0.338236,-0.857099,-2.23567,-0.70812,0.0498707,0.0237014,425.28,1.82363,0.264547,0.388706,0.139652,0.104866,inf,inf,inf,inf,1,1,1,1,2,0,2,1,6,1,1,0
582500696,15251870,34.0348603,108.7564941,8.46479,0.686087,-2.42794,0.0727096,0.0925826,0.0,1.05156,0.0126252,-0.0485613,0.387663,-0.0110595,-0.336131,0.338236,0.965327,0.186156,9.05413,0.0540194,0.0237014,425.28,1.78166,0.273699,0.391114,0.145411,0.106564,inf,inf,inf,inf,1,1,1,1,2,0,2,1,6,1,1,0
582600784,15251870,34.0348603,108.7564941,8.57192,0.685202,-2.39491,0.0727096,0.0925826,0.0,1.03,0.0371522,-0.0342349,0.396144,-0.0110595,-0.336131,0.338236,0.190214,-1.24392,4.64352,0.0536649,0.0237014,425.28,1.74862,0.265157,0.391027,0.140158,0.105347,inf,inf,inf,inf,1,1,1,1,2,0,2,1,6,1,1,0
582700872,15251870,34.0348603,108.7564941,8.67294,0.689312,-2.36599,0.0727096,0.0925826,0.0,1.00529,0.0766388,-0.0572233,0.363724,-0.0110595,-0.336131,0.338236,-1.3833,3.41817,-4.39301,0.0515684,0.0237014,425.28,1.71971,0.273608,0.392809,0.145526,0.106855,inf,inf,inf,inf,1,1,1,1,2,0,2,1,6,1,1,0
582800965,15251870,34.0348603,108.7564941,8.77097,0.697236,-2.34245,0.0727096,0.0925826,0.0,0.990237,0.0928321,-0.0823323,0.324065,-0.0110595,-0.336131,0.338236,-1.12431,1.48848,-4.44148,0.0504992,0.0237014,425.28,1.69617,0.264987,0.390263,0.140239,0.105367,inf,inf,inf,inf,1,1,1,1,2,0,2,1,6,1,1,0
582901047,15251870,34.0348603,108.7564941,8.86452,0.710933,-2.32755,0.0727096,0.0925826,0.0,0.9812,0.140522,-0.104753,0.284833,-0.0110595,-0.336131,0.338236,1.08018,2.05641,7.92943,0.0507498,0.0237014,425.28,1.68127,0.27353,0.392041,0.14535,0.106864,inf,inf,inf,inf,1,1,1,1,2,0,2,1,6,1,1,0
583001134,15251870,34.0348603,108.7564941,8.95798,0.72822,-2.32003,0.0727096,0.0925826,0.0,0.988814,0.145323,-0.166097,0.205386,-0.0110595,-0.336131,0.338236,0.170662,0.800571,-3.45292,0.0498516,0.0237014,425.28,1.67375,0.26494,0.389516,0.140226,0.10539,inf,inf,inf,inf,1,1,1,1,2,0,2,1,6,1,1,0
583101224,15251870,34.0348603,108.7564941,9.05101,0.748441,-2.32116,0.0727096,0.0925826,0.0,0.988944,0.151146,-0.197281,0.154004,-0.0110595,-0.336131,0.338236,0.27829,-2.52542,-2.50974,0.050289,0.0237014,425.28,1.67488,0.273581,0.393741,0.145607,0.107161,inf,inf,inf,inf,1,1,1,1,2,0,2,1,6,1,1,0
583201310,15251870,34.0348603,108.7564941,9.1455,0.768103,-2.32092,0.0727096,0.0925826,0.0,1.00023,0.175201,-0.211794,0.126133,-0.0110595,-0.336131,0.338236,2.47216,-0.115136,5.89816,0.052287,0.0237014,425.28,1.67464,0.264816,0.391153,0.140059,0.105637,inf,inf,inf,inf,1,1,1,1,2,0,2,1,6,1,1,0
583301397,15251870,34.0348603,108.7564941,9.24179,0.78297,-2.31911,0.0727096,0.0925826,0.0,1.00794,0.171272,-0.257494,0.0725567,-0.0110595,-0.336131,0.338236,0.211464,-0.0813092,-2.75146,0.0550974,0.0237014,425.28,1.67283,0.273522,0.392938,0.145255,0.107144,inf,inf,inf,inf,1,1,1,1,2,0,2,1,6,1,1,0
583401484,15251870,34.0348603,108.7564941,9.33998,0.797047,-2.3174,0.0727096,0.0925826,0.0,1.01057,0.17561,-0.319615,0.00884997,-0.0110595,-0.336131,0.338236,0.105901,0.287187,-2.70482,0.0572162,0.0237014,425.28,1.67112,0.26499,0.390388,0.139908,0.105649,inf,inf,inf,inf,1,1,1,1,2,0,2,1,6,1,1,0
583501572,15251870,34.0348603,108.7564941,9.43996,0.809315,-2.32056,0.0727096,0.0925826,0.0,1.02414,0.175156,-0.359945,-0.0320299,-0.0110595,-0.336131,0.338236,0.900639,-1.94888,-0.838473,0.0581138,0.0237014,425.28,1.67428,0.27377,0.39217,0.145067,0.107153,inf,inf,inf,inf,1,1,1,1,2,0,2,1,6,1,1,0
583601660,15251870,34.0348603,108.7564941,9.54278,0.821518,-2.32403,0.0727096,0.0925826,0.0,1.03442,0.175679,-0.412971,-0.0806977,-0.0110595,-0.336131,0.338236,1.96601,-2.04463,6.93344,0.0579005,0.0237014,425.28,1.67775,0.265275,0.389626,0.13971,0.105653,inf,inf,inf,inf,1,1,1,1,2,0,2,1,6,1,1,0
583701747,15251870,34.0348603,108.7564941,9.64743,0.833926,-2.32828,0.0727096,0.0925826,0.0,1.02822,0.191696,-0.480488,-0.139057,-0.0110595,-0.336131,0.338236,0.673466,-0.402558,5.79612,0.0546146,0.0237014,425.28,1.682,0.274123,0.391404,0.144766,0.107153,inf,inf,inf,inf,1,1,1,1,2,0,2,1,6,1,1,0
583801838,15251870,34.0348603,108.7564941,9.75258,0.846606,-2.3326,0.0727096,0.0925826,0.0,1.03323,0.171862,-0.52083,-0.167965,-0.0110595,-0.336131,0.338236,0.520337,-1.00964,-1.19253,0.0520247,0.0237014,425.28,1.68632,0.265659,0.388882,0.139512,0.105655,inf,inf,inf,inf,1,1,1,1,2,0,2,1,6,1,1,0
583901922,15251870,34.0348603,108.7564941,9.85846,0.857336,-2.33144,0.0727096,0.0925826,0.0,1.04859,0.145223,-0.506401,-0.137713,-0.0110595,-0.336131,0.338236,1.12559,-5.8877,1.26831,0.0534012,0.0237014,425.28,1.68516,0.274565,0.393121,0.144521,0.10742,inf,inf,inf,inf,1,1,1,1,2,0,2,1,6,1,1,0
584002010,15251870,34.0348603,108.7564941,9.96703,0.865333,-2.3283,0.0727096,0.0925826,0.0,1.05359,0.120416,-0.563476,-0.174408,-0.0110595,-0.336131,0.338236,1.57483,-4.21264,4.41301,0.0582899,0.0237014,425.28,1.68202,0.266022,0.390565,0.138896,0.105895,inf,inf,inf,inf,1,1,1,1,2,0,2,1,6,1,1,0
584102097,15251870,34.0348603,108.7564941,10.0783,0.868719,-2.31879,0.0727096,0.0925826,0.0,1.04143,0.0969133,-0.556196,-0.142545,-0.0110595,-0.336131,0.338236,-0.701792,1.66842,-1.47819,0.0636062,0.0237014,425.28,1.67251,0.274957,0.392377,0.143826,0.107397,inf,inf,inf,inf,1,1,1,1,2,0,2,1,6,1,1,0
584202186,15251870,34.0348603,108.7564941,10.1895,0.870168,-2.30372,0.0727096,0.0925826,0.0,1.05928,0.0934022,-0.491003,-0.0545583,-0.0110595,-0.336131,0.338236,-0.451701,6.43215,-0.0494977,0.0667119,0.0237014,425.28,1.65743,0.266384,0.389833,0.138429,0.105875,inf,inf,inf,inf,1,1,1,1,2,0,2,1,6,1,1,0
584302279,15251870,34.0348603,108.7564941,10.3012,0.869547,-2.28008,0.0727096,0.0925826,0.0,1.06428,0.0468808,-0.427132,0.0320134,-0.0110595,-0.336131,0.338236,1.16684,-5.50596,6.13894,0.0690028,0.0237014,425.28,1.6338,0.27534,0.39164,0.142959,0.107361,inf,inf,inf,inf,1,1,1,1,2,0,2,1,6,1,1,0
584402360,15251870,34.0348603,108.7564941,10.4118,0.866752,-2.25443,0.0727096,0.0925826,0.0,1.0606,0.0357489,-0.405429,0.0717817,-0.0110595,-0.336131,0.338236,-0.476195,-1.88662,-4.90482,0.0670777,0.0237014,425.28,1.60815,0.266716,0.389117,0.137313,0.105829,inf,inf,inf,inf,1,1,1,1,2,0,2,1,6,1,1,0
584502447,15251870,34.0348603,108.7564941,10.5231,0.861783,-2.22436,0.0727096,0.0925826,0.0,1.09244,0.0237648,-0.341672,0.151354,-0.0110595,-0.336131,0.338236,1.31034,-3.68525,0.612603,0.0664947,0.0237014,425.28,1.57808,0.275662,0.390919,0.141879,0.107313,inf,inf,inf,inf,1,1,1,1,2,0,2,1,6,1,1,0
584602535,15251870,34.0348603,108.7564941,10.6383,0.857455,-2.19547,0.0727096,0.0925826,0.0,1.13167,0.0253104,-0.307761,0.194504,-0.0110595,-0.336131,0.338236,1.73915,0.866139,0.208332,0.065501,0.0237014,425.28,1.54919,0.266945,0.390823,0.136286,0.106025,inf,inf,inf,inf,1,1,1,1,2,0,2,1,6,1,1,0
584702623,15251870,34.0348603,108.7564941,10.7611,0.853236,-2.1608,0.0727096,0.0925826,0.0,1.1949,0.0163649,-0.304898,0.207598,-0.0110595,-0.336131,0.338236,0.287983,-2.69877,-8.38504,0.0659309,0.0237014,425.28,1.51452,0.275868,0.392661,0.140793,0.107516,inf,inf,inf,inf,1,1,1,1,2,0,2,1,6,1,1,0
584802710,15251870,34.0348603,108.7564941,10.8875,0.849416,-2.12821,0.0727096,0.0925826,0.0,1.22749,0.0359137,-0.279489,0.237937,-0.0110595,-0.336131,0.338236,-0.0286925,3.73436,2.86129,0.0650939,0.0237014,425.28,1.48193,0.267164,0.390108,0.135297,0.105955,inf,inf,inf,inf,1,1,1,1,2,0,2,1,6,1,1,0
584902797,15251870,34.0348603,108.7564941,11.0143,0.845348,-2.09296,0.0727096,0.0925826,0.0,1.26351,0.0245343,-0.259975,0.26456,-0.0110595,-0.336131,0.338236,1.41163,-4.10299,-0.876283,0.0671295,0.0237014,425.28,1.44668,0.276062,0.391938,0.139718,0.107435,inf,inf,inf,inf,1,1,1,1,2,0,2,1,6,1,1,0
585002885,15251870,34.0348603,108.7564941,11.144,0.842483,-2.05871,0.0727096,0.0925826,0.0,1.26817,0.0372511,-0.294744,0.234345,-0.0110595,-0.336131,0.338236,-1.62111,4.32077,-5.5357,0.0667596,0.0237014,425.28,1.41242,0.267366,0.389406,0.134522,0.105881,inf,inf,inf,inf,1,1,1,1,2,0,2,1,6,1,1,0
585102972,15251870,34.0348603,108.7564941,11.2734,0.842042,-2.02678,0.0727096,0.0925826,0.0,1.25197,0.049491,-0.355272,0.179717,-0.0110595,-0.336131,0.338236,0.082671,-0.737896,4.30455,0.0652227,0.0237014,425.28,1.3805,0.27624,0.391229,0.13903,0.10736,inf,inf,inf,inf,1,1,1,1,2,0,2,1,6,1,1,0
585203060,15251870,34.0348603,108.7564941,11.4006,0.84451,-2.01054,0.0727096,0.0925826,0.0,1.25503,0.0495529,-0.393722,0.137073,-0.0110595,-0.336131,0.338236,0.282957,-2.62723,-5.75657,0.0662048,0.0237014,425.28,1.36425,0.285672,0.393113,0.143659,0.108825,inf,inf,inf,inf,1,1,1,1,2,0,2,1,6,1,1,0
585303148,15251870,34.0348603,108.7564941,11.5216,0.846447,-1.98914,0.0727096,0.0925826,0.0,1.24152,0.110833,-0.426445,0.110204,-0.0110595,-0.336131,0.338236,-0.684318,-0.0188928,-0.525439,0.0643475,0.0237014,425.28,1.34286,0.27613,0.392954,0.138455,0.107517,inf,inf,inf,inf,1,1,1,1,2,0,2,1,6,1,1,0
585403238,15251870,34.0348603,108.7564941,11.6436,0.856484,-1.97474,0.0727096,0.0925826,0.0,1.22483,0.197124,-0.459529,0.0785983,-0.0110595,-0.336131,0.338236,0.503583,3.16854,-0.942088,0.060167,0.0237014,425.28,1.32846,0.267546,0.3904,0.133428,0.105956,inf,inf,inf,inf,1,1,1,1,2,0,2,1,6,1,1,0
585503323,15251870,34.0348603,108.7564941,11.7675,0.874049,-1.95925,0.0727096,0.0925826,0.0,1.21367,0.255714,-0.435374,0.106479,-0.0110595,-0.336131,0.338236,0.736422,-2.98521,1.82015,0.0580441,0.0237014,425.28,1.31297,0.276368,0.392248,0.138023,0.107437,inf,inf,inf,inf,1,1,1,1,2,0,2,1,6,1,1,0
585603410,15251870,34.0348603,108.7564941,11.8911,0.895984,-1.94312,0.0727096,0.0925826,0.0,1.19435,0.303324,-0.417063,0.125477,-0.0110595,-0.336131,0.338236,1.01558,-2.28382,3.70222,0.0551303,0.0237014,425.28,1.29684,0.267871,0.389712,0.133238,0.105886,inf,inf,inf,inf,1,1,1,1,2,0,2,1,6,1,1,0
585703497,15251870,34.0348603,108.7564941,12.0129,0.920351,-1.928,0.0727096,0.0925826,0.0,1.16259,0.338662,-0.457948,0.0853652,-0.0110595,-0.336131,0.338236,-0.0855352,-1.81983,-3.28921,0.0504132,0.0237014,425.28,1.28172,0.276683,0.391553,0.13762,0.107345,inf,inf,inf,inf,1,1,1,1,2,0,2,1,6,1,1,0
585803586,15251870,34.0348603,108.7564941,12.1319,0.945938,-1.91868,0.0727096,0.0925826,0.0,1.14558,0.32327,-0.431441,0.108523,-0.0110595,-0.336131,0.338236,-0.653149,4.02864,2.47746,0.0437156,0.0237014,425.28,1.2724,0.268126,0.389021,0.132737,0.105784,inf,inf,inf,inf,1,1,1,1,2,0,2,1,6,1,1,0
585903674,15251870,34.0348603,108.7564941,12.2498,0.968987,-1.91,0.0727096,0.0925826,0.0,1.13011,0.318795,-0.481611,0.055155,-0.0110595,-0.336131,0.338236,0.186605,-1.26091,-3.20236,0.0365128,0.0237014,425.28,1.26371,0.276915,0.390853,0.137244,0.107251,inf,inf,inf,inf,1,1,1,1,2,0,2,1,6,1,1,0
586003760,15251870,34.0348603,108.7564941,12.3641,0.992091,-1.91215,0.0727096,0.0925826,0.0,1.12023,0.279288,-0.486646,0.0401466,-0.0110595,-0.336131,0.338236,0.559048,-0.603036,-2.01991,0.0314304,0.0237014,425.28,1.26587,0.268454,0.388348,0.132444,0.105706,inf,inf,inf,inf,1,1,1,1,2,0,2,1,6,1,1,0
586103847,15251870,34.0348603,108.7564941,12.4757,1.0144,-1.91698,0.0727096,0.0925826,0.0,1.11007,0.275571,-0.465707,0.048796,-0.0110595,-0.336131,0.338236,0.724986,-2.05059,6.8242,0.0278885,0.0237014,425.28,1.2707,0.277232,0.392627,0.137096,0.107442,inf,inf,inf,inf,1,1,1,1,2,0,2,1,6,1,1,0
586203935,15251870,34.0348603,108.7564941,12.5831,1.04227,-1.92757,0.0727096,0.0925826,0.0,1.09292,0.259737,-0.483942,0.0137687,-0.0110595,-0.336131,0.338236,-0.634174,1.47632,0.738065,0.0224435,0.0237014,425.28,1.28129,0.268678,0.390087,0.13212,0.105871,inf,inf,inf,inf,1,1,1,1,2,0,2,1,6,1,1,0
586294013,15251870,34.0348603,108.7564941,12.6735,1.0732,-1.94426,0.0727096,0.0925826,0.0,1.07179,0.231407,-0.499081,-0.0207641,-0.0110595,-0.336131,0.338236,-0.642448,2.12158,2.8396,0.0197456,0.0237014,425.28,1.29798,0.276532,0.391265,0.136108,0.107136,inf,inf,inf,inf,1,1,1,1,2,0,2,1,6,1,1,0
586404110,15251870,34.0348603,108.7564941,12.7799,1.10863,-1.9742,0.0727096,0.0925826,0.0,1.04748,0.212871,-0.54444,-0.0939745,-0.0110595,-0.336131,0.338236,-0.220375,3.30678,-2.17865,0.0175441,0.0237014,425.28,1.32792,0.268973,0.389413,0.131862,0.105782,inf,inf,inf,inf,1,1,1,1,2,0,2,1,6,1,1,0
586504204,15251870,34.0348603,108.7564941,12.8717,1.13877,-2.0097,0.0727096,0.0925826,0.0,1.03611,0.159579,-0.554007,-0.130818,-0.0110595,-0.336131,0.338236,0.0584356,-1.58071,-1.42381,0.015743,0.0237014,425.28,1.36341,0.277712,0.391261,0.136469,0.107244,inf,inf,inf,inf,1,1,1,1,2,0,2,1,6,1,1,0
586604285,15251870,34.0348603,108.7564941,12.9626,1.16549,-2.04907,0.0727096,0.0925826,0.0,1.01778,0.0978211,-0.554317,-0.158196,-0.0110595,-0.336131,0.338236,0.292766,-2.35284,-1.03192,0.0137508,0.0237014,425.28,1.40279,0.269217,0.388748,0.131723,0.105692,inf,inf,inf,inf,1,1,1,1,2,0,2,1,6,1,1,0
586704372,15251870,34.0348603,108.7564941,13.0524,1.19177,-2.09422,0.0727096,0.0925826,0.0,1.00389,0.0944633,-0.564318,-0.19596,-0.0110595,-0.336131,0.338236,-0.200782,2.23494,2.0669,0.0102345,0.0237014,425.28,1.44794,0.277943,0.390587,0.136169,0.107142,inf,inf,inf,inf,1,1,1,1,2,0,2,1,6,1,1,0
586794454,15251870,34.0348603,108.7564941,13.1351,1.21016,-2.13236,0.0727096,0.0925826,0.0,0.997032,0.073075,-0.557584,-0.208691,-0.0110595,-0.336131,0.338236,1.40063,1.9952,4.40723,0.0104955,0.0237014,425.28,1.48607,0.268451,0.389822,0.130909,0.105627,inf,inf,inf,inf,1,1,1,1,2,0,2,1,6,1,1,0
586904547,15251870,34.0348603,108.7564941,13.2391,1.23133,-2.18101,0.0727096,0.0925826,0.0,0.983861,0.0562136,-0.583593,-0.256446,-0.0110595,-0.336131,0.338236,0.560364,2.66453,1.40997,0.013395,0.0237014,425.28,1.53473,0.277983,0.392358,0.135903,0.107283,inf,inf,inf,inf,1,1,1,1,2,0,2,1,6,1,1,0
586994625,15251870,34.0348603,108.7564941,13.3253,1.2456,-2.21802,0.0727096,0.0925826,0.0,0.979898,0.0419056,-0.581037,-0.26652,-0.0110595,-0.336131,0.338236,0.115503,0.333803,-0.471982,0.0165735,0.0237014,425.28,1.57174,0.268611,0.389149,0.130801,0.105516,inf,inf,inf,inf,1,1,1,1,2,0,2,1,6,1,1,0
587104724,15251870,34.0348603,108.7564941,13.4337,1.26208,-2.25552,0.0727096,0.0925826,0.0,0.983146,0.0346381,-0.567492,-0.260245,-0.0110595,-0.336131,0.338236,0.0611292,-2.78846,-1.75429,0.0188631,0.0237014,425.28,1.60924,0.27812,0.391673,0.135723,0.107165,inf,inf,inf,inf,1,1,1,1,2,0,2,1,6,1,1,0
587204810,15251870,34.0348603,108.7564941,13.5323,1.27373,-2.28679,0.0727096,0.0925826,0.0,0.982177,0.0364518,-0.556377,-0.252516,-0.0110595,-0.336131,0.338236,1.3313,-2.411,4.92825,0.0198471,0.0237014,425.28,1.64051,0.269526,0.389133,0.130877,0.105581,inf,inf,inf,inf,1,1,1,1,2,0,2,1,6,1,1,0
587294888,15251870,34.0348603,108.7564941,13.6217,1.28132,-2.31085,0.0727096,0.0925826,0.0,0.98571,0.0389129,-0.564168,-0.259503,-0.0110595,-0.336131,0.338236,0.587104,-2.38368,1.7157,0.0205828,0.0237014,425.28,1.66457,0.277278,0.390302,0.134873,0.106826,inf,inf,inf,inf,1,1,1,1,2,0,2,1,6,1,1,0
587404985,15251870,34.0348603,108.7564941,13.7331,1.28887,-2.33734,0.0727096,0.0925826,0.0,1.01327,0.0419346,-0.55422,-0.247917,-0.0110595,-0.336131,0.338236,-0.180142,1.12761,-3.93007,0.0211369,0.0237014,425.28,1.69106,0.269606,0.388452,0.130698,0.10545,inf,inf,inf,inf,1,1,1,1,2,0,2,1,6,1,1,0
587495062,15251870,34.0348603,108.7564941,13.8271,1.29246,-2.35385,0.0727096,0.0925826,0.0,1.03875,0.0414996,-0.571087,-0.259174,-0.0110595,-0.336131,0.338236,-1.17494,0.204478,-8.69621,0.0204475,0.0237014,425.28,1.70757,0.277335,0.392065,0.134724,0.106962,inf,inf,inf,inf,1,1,1,1,2,0,2,1,6,1,1,0
587605158,15251870,34.0348603,108.7564941,13.9451,1.29581,-2.37593,0.0727096,0.0925826,0.0,1.06749,0.039574,-0.590265,-0.272177,-0.0110595,-0.336131,0.338236,-2.13105,0.00919068,-6.86264,0.0219839,0.0237014,425.28,1.72965,0.269772,0.390197,0.130548,0.10559,inf,inf,inf,inf,1,1,1,1,2,0,2,1,6,1,1,0
587695239,15251870,34.0348603,108.7564941,14.043,1.29693,-2.39134,0.0727096,0.0925826,0.0,1.07891,0.0388784,-0.560727,-0.235562,-0.0110595,-0.336131,0.338236,-0.233449,0.00365208,-1.31155,0.0240397,0.0237014,425.28,1.74506,0.277489,0.391385,0.134687,0.106838,inf,inf,inf,inf,1,1,1,1,2,0,2,1,6,1,1,0
587795327,15251870,34.0348603,108.7564941,14.1523,1.29816,-2.40872,0.0727096,0.0925826,0.0,1.08766,0.0348032,-0.53097,-0.200511,-0.0110595,-0.336131,0.338236,0.658261,-1.13375,5.26558,0.0262573,0.0237014,425.28,1.76244,0.269074,0.388847,0.130207,0.105272,inf,inf,inf,inf,1,1,1,1,2,0,2,1,6,1,1,0
587905434,15251870,34.0348603,108.7564941,14.2715,1.29818,-2.41982,0.0727096,0.0925826,0.0,1.07073,0.0313796,-0.540767,-0.199134,-0.0110595,-0.336131,0.338236,0.0843484,-0.398687,1.14134,0.0264215,0.0237014,425.28,1.77354,0.278495,0.393802,0.135101,0.107169,inf,inf,inf,inf,1,1,1,1,2,0,2,1,6,1,1,0
587995499,15251870,34.0348603,108.7564941,14.3676,1.2975,-2.43409,0.0727096,0.0925826,0.0,1.05886,0.0230958,-0.558156,-0.21198,-0.0110595,-0.336131,0.338236,0.24701,-0.403549,2.17677,0.0267154,0.0237014,425.28,1.78781,0.269108,0.390525,0.130063,0.10538,inf,inf,inf,inf,1,1,1,1,2,0,2,1,6,1,1,0
588105595,15251870,34.0348603,108.7564941,14.4835,1.293,-2.44648,0.0727096,0.0925826,0.0,1.04877,-0.000549693,-0.570206,-0.213393,-0.0110595,-0.336131,0.338236,-0.492047,-4.77242,-3.53391,0.0271062,0.0237014,425.28,1.8002,0.278508,0.393035,0.135197,0.107014,inf,inf,inf,inf,1,1,1,1,2,0,2,1,6,1,1,0
588195673,15251870,34.0348603,108.7564941,14.5777,1.28882,-2.46004,0.0727096,0.0925826,0.0,1.03505,-0.00620291,-0.576811,-0.215694,-0.0110595,-0.336131,0.338236,-1.41447,0.245866,-5.81777,0.0276543,0.0237014,425.28,1.81376,0.269122,0.389776,0.130176,0.105233,inf,inf,inf,inf,1,1,1,1,2,0,2,1,6,1,1,0
588295769,15251870,34.0348603,108.7564941,14.6833,1.28208,-2.46844,0.0727096,0.0925826,0.0,1.02772,0.0102379,-0.590182,-0.216865,-0.0110595,-0.336131,0.338236,-0.486576,3.9362,-0.987161,0.0277715,0.0237014,425.28,1.82215,0.277631,0.391592,0.134684,0.106659,inf,inf,inf,inf,1,1,1,1,2,0,2,1,6,1,1,0
588395848,15251870,34.0348603,108.7564941,14.7897,1.27708,-2.47981,0.0727096,0.0925826,0.0,1.03973,0.0116224,-0.559906,-0.179032,-0.0110595,-0.336131,0.338236,0.658615,2.71301,2.81938,0.0269293,0.0237014,425.28,1.83353,0.269324,0.389045,0.130406,0.105112,inf,inf,inf,inf,1,1,1,1,2,0,2,1,6,1,1,0
588495935,15251870,34.0348603,108.7564941,14.8992,1.27323,-2.48951,0.0727096,0.0925826,0.0,1.05458,0.0243267,-0.559567,-0.171842,-0.0110595,-0.336131,0.338236,1.13359,3.29251,3.90939,0.0256131,0.0237014,425.28,1.84323,0.277843,0.39331,0.134974,0.106806,inf,inf,inf,inf,1,1,1,1,2,0,2,1,6,1,1,0
588606036,15251870,34.0348603,108.7564941,15.0203,1.26994,-2.50434,0.0727096,0.0925826,0.0,1.0571,0.021582,-0.57108,-0.179779,-0.0110595,-0.336131,0.338236,1.10138,1.61921,4.88135,0.0243546,0.0237014,425.28,1.85805,0.270366,0.391405,0.131071,0.105448,inf,inf,inf,inf,1,1,1,1,2,0,2,1,6,1,1,0
588696109,15251870,34.0348603,108.7564941,15.1199,1.26691,-2.51599,0.0727096,0.0925826,0.0,1.06487,0.0144941,-0.572204,-0.177507,-0.0110595,-0.336131,0.338236,0.85322,-2.45634,1.67689,0.0252091,0.0237014,425.28,1.86971,0.278062,0.392566,0.135139,0.106677,inf,inf,inf,inf,1,1,1,1,2,0,2,1,6,1,1,0
588796199,15251870,34.0348603,108.7564941,15.2296,1.264,-2.53062,0.0727096,0.0925826,0.0,1.0584,0.0165744,-0.56788,-0.171497,-0.0110595,-0.336131,0.338236,-0.318684,2.05455,4.36439,0.0247797,0.0237014,425.28,1.88434,0.269722,0.390009,0.130791,0.10513,inf,inf,inf,inf,1,1,1,1,2,0,2,1,6,1,1,0
588896286,15251870,34.0348603,108.7564941,15.3378,1.25968,-2.54309,0.0727096,0.0925826,0.0,1.03979,0.0162831,-0.570947,-0.171531,-0.0110595,-0.336131,0.338236,-0.0141508,3.28676,5.25022,0.0262303,0.0237014,425.28,1.89681,0.278258,0.391825,0.135366,0.106551,inf,inf,inf,inf,1,1,1,1,2,0,2,1,6,1,1,0
588996371,15251870,34.0348603,108.7564941,15.4436,1.25601,-2.55992,0.0727096,0.0925826,0.0,1.03639,0.0224244,-0.565358,-0.167897,-0.0110595,-0.336131,0.338236,-0.211715,3.836,1.02648,0.0290372,0.0237014,425.28,1.91364,0.269921,0.389283,0.131022,0.105009,inf,inf,inf,inf,1,1,1,1,2,0,2,1,6,1,1,0
589096469,15251870,34.0348603,108.7564941,15.5475,1.25241,-2.57629,0.0727096,0.0925826,0.0,1.03299,0.0215489,-0.569267,-0.173197,-0.0110595,-0.336131,0.338236,-0.0120996,3.42606,0.132251,0.0323681,0.0237014,425.28,1.93001,0.278466,0.391088,0.135651,0.106426,inf,inf,inf,inf,1,1,1,1,2,0,2,1,6,1,1,0
589196546,15251870,34.0348603,108.7564941,15.6506,1.24976,-2.5966,0.0727096,0.0925826,0.0,1.02672,0.0161147,-0.556143,-0.166241,-0.0110595,-0.336131,0.338236,-0.0203644,3.31872,-0.382619,0.0352771,0.0237014,425.28,1.95032,0.269982,0.390978,0.131143,0.105137,inf,inf,inf,inf,1,1,1,1,2,0,2,1,6,1,1,0
589296633,15251870,34.0348603,108.7564941,15.7529,1.24921,-2.61525,0.0727096,0.0925826,0.0,1.02471,0.0161553,-0.518738,-0.134455,-0.0110595,-0.336131,0.338236,0.743162,-1.06383,2.71044,0.037572,0.0237014,425.28,1.96897,0.278525,0.392813,0.135662,0.106559,inf,inf,inf,inf,1,1,1,1,2,0,2,1,6,1,1,0
589396720,15251870,34.0348603,108.7564941,15.8542,1.24985,-2.63545,0.0727096,0.0925826,0.0,1.026,0.0274923,-0.498725,-0.12206,-0.0110595,-0.336131,0.338236,1.23577,-0.920279,7.52721,0.0373694,0.0237014,425.28,1.98916,0.27015,0.390261,0.131151,0.105015,inf,inf,inf,inf,1,1,1,1,2,0,2,1,6,1,1,0
589496807,15251870,34.0348603,108.7564941,15.9557,1.2508,-2.65491,0.0727096,0.0925826,0.0,1.04315,0.0309141,-0.512627,-0.143738,-0.0110595,-0.336131,0.338236,0.190234,-0.529388,-3.49388,0.0345477,0.0237014,425.28,2.00863,0.278699,0.392084,0.135725,0.106433,inf,inf,inf,inf,1,1,1,1,2,0,2,1,6,1,1,0
589596895,15251870,34.0348603,108.7564941,16.0592,1.25257,-2.67501,0.0727096,0.0925826,0.0,1.06589,0.0353428,-0.455926,-0.0966668,-0.0110595,-0.336131,0.338236,0.826105,-1.63763,3.50465,0.033107,0.0237014,425.28,2.02873,0.270299,0.38953,0.131284,0.104891,inf,inf,inf,inf,1,1,1,1,2,0,2,1,6,1,1,0
589696982,15251870,34.0348603,108.7564941,16.1625,1.25356,-2.69504,0.0727096,0.0925826,0.0,1.06963,0.0435697,-0.434707,-0.086544,-0.0110595,-0.336131,0.338236,0.59944,2.05511,4.32604,0.0314421,0.0237014,425.28,2.04875,0.278854,0.391324,0.135771,0.106297,inf,inf,inf,inf,1,1,1,1,2,0,2,1,6,1,1,0
589797069,15251870,34.0348603,108.7564941,16.2672,1.25307,-2.71082,0.0727096,0.0925826,0.0,1.07291,0.0483335,-0.388706,-0.0511855,-0.0110595,-0.336131,0.338236,-0.462746,4.95568,-2.74081,0.0299265,0.0237014,425.28,2.06454,0.270516,0.391215,0.131341,0.105033,inf,inf,inf,inf,1,1,1,1,2,0,2,1,6,1,1,0
589897156,15251870,34.0348603,108.7564941,16.3722,1.25082,-2.71819,0.0727096,0.0925826,0.0,1.06525,0.0370005,-0.304463,0.0259685,-0.0110595,-0.336131,0.338236,1.01113,1.07022,6.54383,0.0280945,0.0237014,425.28,2.07191,0.279081,0.39304,0.135827,0.106446,inf,inf,inf,inf,1,1,1,1,2,0,2,1,6,1,1,0
589997252,15251870,34.0348603,108.7564941,16.4749,1.24909,-2.7201,0.0727096,0.0925826,0.0,1.04251,0.0279574,-0.265582,0.0583883,-0.0110595,-0.336131,0.338236,0.193015,2.49088,-0.904851,0.0246154,0.0237014,425.28,2.07382,0.270658,0.39047,0.131105,0.104899,inf,inf,inf,inf,1,1,1,1,2,0,2,1,6,1,1,0
590097331,15251870,34.0348603,108.7564941,16.5748,1.24672,-2.7155,0.0727096,0.0925826,0.0,1.02377,0.00946634,-0.198811,0.120597,-0.0110595,-0.336131,0.338236,0.354433,-0.0701172,4.92996,0.0229024,0.0237014,425.28,2.06922,0.279215,0.392283,0.135572,0.106308,inf,inf,inf,inf,1,1,1,1,2,0,2,1,6,1,1,0
590197418,15251870,34.0348603,108.7564941,16.6742,1.2449,-2.7073,0.0727096,0.0925826,0.0,1.01009,0.021668,-0.158281,0.154693,-0.0110595,-0.336131,0.338236,-0.0453453,4.6138,-3.45666,0.0206592,0.0237014,425.28,2.06102,0.270727,0.389721,0.130823,0.104755,inf,inf,inf,inf,1,1,1,1,2,0,2,1,6,1,1,0
590297505,15251870,34.0348603,108.7564941,16.7735,1.24641,-2.69392,0.0727096,0.0925826,0.0,1.0065,0.0160305,-0.105726,0.202364,-0.0110595,-0.336131,0.338236,0.269144,-4.31839,1.73214,0.02572,0.0237014,425.28,2.04764,0.279269,0.391521,0.135265,0.106158,inf,inf,inf,inf,1,1,1,1,2,0,2,1,6,1,1,0
590397592,15251870,34.0348603,108.7564941,16.8721,1.24821,-2.67958,0.0727096,0.0925826,0.0,0.993464,0.0304563,-0.0759145,0.226266,-0.0110595,-0.336131,0.338236,2.2173,-1.47304,6.08289,0.0299765,0.0237014,425.28,2.0333,0.270808,0.388977,0.130585,0.104613,inf,inf,inf,inf,1,1,1,1,2,0,2,1,6,1,1,0
590497680,15251870,34.0348603,108.7564941,16.9701,1.24726,-2.66262,0.0727096,0.0925826,0.0,0.96852,0.0234832,-0.0797337,0.218039,-0.0110595,-0.336131,0.338236,0.299231,-1.36899,5.22275,0.0354903,0.0237014,425.28,2.01634,0.279341,0.393231,0.135083,0.106285,inf,inf,inf,inf,1,1,1,1,2,0,2,1,6,1,1,0
590597767,15251870,34.0348603,108.7564941,17.067,1.24871,-2.64312,0.0727096,0.0925826,0.0,0.966642,0.027645,-0.0534766,0.241021,-0.0110595,-0.336131,0.338236,-0.811616,-3.02723,-1.00628,0.0377162,0.0237014,425.28,1.99683,0.271015,0.39067,0.130711,0.104752,inf,inf,inf,inf,1,1,1,1,2,0,2,1,6,1,1,0
590702858,15251870,34.0348603,108.7564941,17.1679,1.25234,-2.61794,0.0727096,0.0925826,0.0,0.950958,0.0135883,-0.0112455,0.27959,-0.0110595,-0.336131,0.338236,-0.126346,-1.21341,1.33646,0.0383228,0.0237014,425.28,1.97166,0.280443,0.393157,0.13574,0.106352,inf,inf,inf,inf,1,1,1,1,2,0,2,1,6,1,1,0
590802945,15251870,34.0348603,108.7564941,17.2617,1.25205,-2.5934,0.0727096,0.0925826,0.0,0.934321,0.0197249,0.0185175,0.304577,-0.0110595,-0.336131,0.338236,-0.373443,4.19977,-0.794329,0.0395912,0.0237014,425.28,1.94711,0.27198,0.390589,0.131233,0.104811,inf,inf,inf,inf,1,1,1,1,2,0,2,1,6,1,1,0
590903032,15251870,34.0348603,108.7564941,17.3529,1.24765,-2.56425,0.0727096,0.0925826,0.0,0.92082,0.00896489,0.0632723,0.346134,-0.0110595,-0.336131,0.338236,-0.490605,-0.156196,1.71016,0.0418577,0.0237014,425.28,1.91797,0.280571,0.392399,0.135547,0.10621,inf,inf,inf,inf,1,1,1,1,2,0,2,1,6,1,1,0
591003120,15251870,34.0348603,108.7564941,17.4445,1.24606,-2.53287,0.0727096,0.0925826,0.0,0.900124,0.00978299,0.0535496,0.334374,-0.0110595,-0.336131,0.338236,-0.598126,1.98431,0.248138,0.0443137,0.0237014,425.28,1.88659,0.272122,0.389839,0.13098,0.104672,inf,inf,inf,inf,1,1,1,1,2,0,2,1,6,1,1,0
591103207,15251870,34.0348603,108.7564941,17.5379,1.24631,-2.49623,0.0727096,0.0925826,0.0,0.876541,0.00815318,0.0319054,0.315391,-0.0110595,-0.336131,0.338236,-0.796482,4.38221,-4.0036,0.04699,0.0237014,425.28,1.84995,0.280705,0.391637,0.135574,0.10607,inf,inf,inf,inf,1,1,1,1,2,0,2,1,6,1,1,0
591203294,15251870,34.0348603,108.7564941,17.6274,1.24765,-2.46648,0.0727096,0.0925826,0.0,0.854742,0.0287597,0.0147292,0.296562,-0.0110595,-0.336131,0.338236,0.759987,-2.82745,3.09096,0.0486172,0.0237014,425.28,1.8202,0.272102,0.38908,0.131032,0.104514,inf,inf,inf,inf,1,1,1,1,2,0,2,1,6,1,1,0
591303381,15251870,34.0348603,108.7564941,17.7133,1.25053,-2.4311,0.0727096,0.0925826,0.0,0.824057,0.0865485,-0.00402877,0.283392,-0.0110595,-0.336131,0.338236,-0.86402,4.30257,-0.60488,0.0488295,0.0237014,425.28,1.78482,0.280677,0.393332,0.135698,0.106182,inf,inf,inf,inf,1,1,1,1,2,0,2,1,6,1,1,0
591403468,15251870,34.0348603,108.7564941,17.7961,1.25869,-2.39899,0.0727096,0.0925826,0.0,0.801931,0.16293,-0.00788625,0.281774,-0.0110595,-0.336131,0.338236,-0.621149,7.55523,-3.99678,0.0490088,0.0237014,425.28,1.75271,0.272244,0.390766,0.131397,0.104654,inf,inf,inf,inf,1,1,1,1,2,0,2,1,6,1,1,0
591503565,15251870,34.0348603,108.7564941,17.8748,1.27386,-2.36652,0.0727096,0.0925826,0.0,0.776657,0.235373,-0.0191637,0.274847,-0.0110595,-0.336131,0.338236,-0.889345,3.47617,-1.0095,0.0526245,0.0237014,425.28,1.72023,0.280838,0.392572,0.136223,0.106052,inf,inf,inf,inf,1,1,1,1,2,0,2,1,6,1,1,0
591603651,15251870,34.0348603,108.7564941,17.9519,1.29466,-2.33421,0.0727096,0.0925826,0.0,0.75883,0.283633,-0.0347753,0.264016,-0.0110595,-0.336131,0.338236,0.430736,1.11971,-0.20376,0.0582381,0.0237014,425.28,1.68793,0.272375,0.390021,0.131822,0.104522,inf,inf,inf,inf,1,1,1,1,2,0,2,1,6,1,1,0
591703729,15251870,34.0348603,108.7564941,18.0285,1.31784,-2.29548,0.0727096,0.0925826,0.0,0.747313,0.329309,-0.051438,0.258294,-0.0110595,-0.336131,0.338236,-0.679007,2.77534,-2.20331,0.0608769,0.0237014,425.28,1.6492,0.280985,0.391823,0.136541,0.105912,inf,inf,inf,inf,1,1,1,1,2,0,2,1,6,1,1,0
591803816,15251870,34.0348603,108.7564941,18.1031,1.34374,-2.26008,0.0727096,0.0925826,0.0,0.722161,0.319976,-0.0949223,0.223508,-0.0110595,-0.336131,0.338236,-1.32166,-0.916662,-6.31019,0.0599151,0.0237014,425.28,1.6138,0.272562,0.389288,0.132078,0.104395,inf,inf,inf,inf,1,1,1,1,2,0,2,1,6,1,1,0
591893895,15251870,34.0348603,108.7564941,18.1685,1.36524,-2.22568,0.0727096,0.0925826,0.0,0.715488,0.307169,-0.0945527,0.234893,-0.0110595,-0.336131,0.338236,0.155428,-1.39194,0.577889,0.0585757,0.0237014,425.28,1.5794,0.2803,0.392864,0.136511,0.105869,inf,inf,inf,inf,1,1,1,1,2,0,2,1,6,1,1,0
592003990,15251870,34.0348603,108.7564941,18.2478,1.38965,-2.19047,0.0727096,0.0925826,0.0,0.703831,0.28757,-0.134252,0.203167,-0.0110595,-0.336131,0.338236,0.0272303,1.9779,-5.04815,0.0561277,0.0237014,425.28,1.54418,0.27273,0.390974,0.132456,0.104539,inf,inf,inf,inf,1,1,1,1,2,0,2,1,6,1,1,0
592104077,15251870,34.0348603,108.7564941,18.3197,1.40553,-2.15753,0.0727096,0.0925826,0.0,0.701035,0.227008,-0.162181,0.185153,-0.0110595,-0.336131,0.338236,0.8463,-3.38584,-4.20607,0.0539517,0.0237014,425.28,1.51125,0.281375,0.392768,0.13737,0.105934,inf,inf,inf,inf,1,1,1,1,2,0,2,1,6,1,1,0
592204164,15251870,34.0348603,108.7564941,18.3895,1.42117,-2.12807,0.0727096,0.0925826,0.0,0.69042,0.210247,-0.159819,0.195814,-0.0110595,-0.336131,0.338236,-0.417457,-0.909162,2.51728,0.0506471,0.0237014,425.28,1.48179,0.272913,0.39021,0.13278,0.104414,inf,inf,inf,inf,1,1,1,1,2,0,2,1,6,1,1,0
592304251,15251870,34.0348603,108.7564941,18.4564,1.43664,-2.09699,0.0727096,0.0925826,0.0,0.682368,0.188653,-0.220541,0.146783,-0.0110595,-0.336131,0.338236,-0.599195,2.91133,-2.79108,0.0448509,0.0237014,425.28,1.45071,0.281576,0.391992,0.137591,0.105803,inf,inf,inf,inf,1,1,1,1,2,0,2,1,6,1,1,0
592394333,15251870,34.0348603,108.7564941,18.5171,1.45065,-2.07623,0.0727096,0.0925826,0.0,0.698953,0.175267,-0.269094,0.104893,-0.0110595,-0.336131,0.338236,0.134559,-0.962239,-5.0423,0.0409906,0.0237014,425.28,1.42994,0.272329,0.388799,0.132717,0.104112,inf,inf,inf,inf,1,1,1,1,2,0,2,1,6,1,1,0
592504426,15251870,34.0348603,108.7564941,18.5995,1.47771,-2.05185,0.0727096,0.0925826,0.0,0.803168,0.306856,-0.347364,0.0354046,-0.0110595,-0.336131,0.338236,0.745254,3.64071,-2.62623,0.0515141,0.0237014,425.28,1.40556,0.281861,0.391228,0.13813,0.10569,inf,inf,inf,inf,1,1,1,1,2,0,2,1,6,1,1,0
592594504,15251870,34.0348603,108.7564941,18.6738,1.508,-2.04356,0.0727096,0.0925826,0.0,0.883736,0.349155,-0.484432,-0.0935327,-0.0110595,-0.336131,0.338236,-0.458762,2.7391,-1.84474,0.0556907,0.0237014,425.28,1.39728,0.272641,0.390483,0.133087,0.104279,inf,inf,inf,inf,1,1,1,1,2,0,2,1,6,1,1,0
592704600,15251870,34.0348603,108.7564941,18.773,1.55249,-2.04341,0.0727096,0.0925826,0.0,0.966969,0.41398,-0.52677,-0.126223,-0.0110595,-0.336131,0.338236,1.06752,-1.65039,1.57343,0.0745046,0.0237014,425.28,1.39713,0.282214,0.392947,0.138933,0.105859,inf,inf,inf,inf,1,1,1,1,2,0,2,1,6,1,1,0
592804690,15251870,34.0348603,108.7564941,18.8682,1.59548,-2.03984,0.0727096,0.0925826,0.0,0.993563,0.425117,-0.514709,-0.101625,-0.0110595,-0.336131,0.338236,-0.0140531,1.22178,-2.91192,0.0806124,0.0237014,425.28,1.39356,0.273712,0.390396,0.134677,0.104338,inf,inf,inf,inf,1,1,1,1,2,0,2,1,6,1,1,0
592894770,15251870,34.0348603,108.7564941,18.9543,1.63284,-2.03075,0.0727096,0.0925826,0.0,0.983631,0.40898,-0.524627,-0.0957636,-0.0110595,-0.336131,0.338236,-0.346108,-0.557251,1.60082,0.0813106,0.0237014,425.28,1.38447,0.281585,0.391512,0.139129,0.105534,inf,inf,inf,inf,1,1,1,1,2,0,2,1,6,1,1,0
593004860,15251870,34.0348603,108.7564941,19.0543,1.67328,-2.02506,0.0727096,0.0925826,0.0,0.95902,0.365893,-0.547315,-0.107314,-0.0110595,-0.336131,0.338236,0.131578,-1.88516,-1.37397,0.0819797,0.0237014,425.28,1.37878,0.273953,0.389659,0.134711,0.104234,inf,inf,inf,inf,1,1,1,1,2,0,2,1,6,1,1,0
593094939,15251870,34.0348603,108.7564941,19.1294,1.69902,-2.02556,0.0727096,0.0925826,0.0,0.937738,0.298264,-0.546819,-0.100601,-0.0110595,-0.336131,0.338236,0.579038,-2.63798,-0.459993,0.0815485,0.0237014,425.28,1.37928,0.281833,0.390766,0.138832,0.105424,inf,inf,inf,inf,1,1,1,1,2,0,2,1,6,1,1,0
593205034,15251870,34.0348603,108.7564941,19.2215,1.72391,-2.03264,0.0727096,0.0925826,0.0,0.910605,0.216531,-0.574746,-0.126475,-0.0110595,-0.336131,0.338236,-0.0198864,-0.600835,-2.31749,0.0810649,0.0237014,425.28,1.38636,0.274108,0.388911,0.134579,0.104112,inf,inf,inf,inf,1,1,1,1,2,0,2,1,6,1,1,0
593295113,15251870,34.0348603,108.7564941,19.2968,1.73721,-2.03692,0.0727096,0.0925826,0.0,0.891549,0.10813,-0.558361,-0.107022,-0.0110595,-0.336131,0.338236,-0.441778,-0.951657,-1.62813,0.0800066,0.0237014,425.28,1.39064,0.281989,0.392468,0.138835,0.105569,inf,inf,inf,inf,1,1,1,1,2,0,2,1,6,1,1,0
593395200,15251870,34.0348603,108.7564941,19.3807,1.74407,-2.04575,0.0727096,0.0925826,0.0,0.866153,0.0463585,-0.56985,-0.119768,-0.0110595,-0.336131,0.338236,-0.101208,4.02987,0.0121291,0.0790842,0.0237014,425.28,1.39947,0.273481,0.38994,0.134072,0.104067,inf,inf,inf,inf,1,1,1,1,2,0,2,1,6,1,1,0
593505296,15251870,34.0348603,108.7564941,19.4724,1.74663,-2.05548,0.0727096,0.0925826,0.0,0.852138,-0.0208551,-0.580075,-0.130092,-0.0110595,-0.336131,0.338236,0.53105,-1.52236,2.38814,0.0781525,0.0237014,425.28,1.4092,0.283118,0.392398,0.139289,0.105638,inf,inf,inf,inf,1,1,1,1,2,0,2,1,6,1,1,0
593595374,15251870,34.0348603,108.7564941,19.5474,1.74605,-2.06919,0.0727096,0.0925826,0.0,0.840366,-0.042163,-0.560727,-0.115577,-0.0110595,-0.336131,0.338236,0.137687,1.15029,3.63806,0.0783101,0.0237014,425.28,1.42291,0.273624,0.389204,0.133792,0.10394,inf,inf,inf,inf,1,1,1,1,2,0,2,1,6,1,1,0
593705470,15251870,34.0348603,108.7564941,19.6394,1.7462,-2.08172,0.0727096,0.0925826,0.0,0.824797,-0.0497907,-0.582751,-0.14011,-0.0110595,-0.336131,0.338236,-1.37435,2.77442,-5.03293,0.0768719,0.0237014,425.28,1.43544,0.283256,0.391631,0.139124,0.105514,inf,inf,inf,inf,1,1,1,1,2,0,2,1,6,1,1,0
593795548,15251870,34.0348603,108.7564941,19.7135,1.74633,-2.09706,0.0727096,0.0925826,0.0,0.814794,-0.0690414,-0.563469,-0.127813,-0.0110595,-0.336131,0.338236,-0.806946,1.7593,-1.5037,0.0736546,0.0237014,425.28,1.45077,0.273779,0.390862,0.133687,0.104082,inf,inf,inf,inf,1,1,1,1,2,0,2,1,6,1,1,0
593895637,15251870,34.0348603,108.7564941,19.794,1.75082,-2.11056,0.0727096,0.0925826,0.0,0.804274,-0.0809663,-0.542581,-0.111322,-0.0110595,-0.336131,0.338236,0.542881,2.70024,5.16647,0.0699973,0.0237014,425.28,1.46428,0.282499,0.392647,0.138417,0.105472,inf,inf,inf,inf,1,1,1,1,2,0,2,1,6,1,1,0
593995722,15251870,34.0348603,108.7564941,19.8732,1.7514,-2.12806,0.0727096,0.0925826,0.0,0.79008,-0.0799509,-0.544731,-0.122101,-0.0110595,-0.336131,0.338236,-0.0103232,1.3593,-2.77621,0.0647856,0.0237014,425.28,1.48178,0.273937,0.390104,0.133414,0.103968,inf,inf,inf,inf,1,1,1,1,2,0,2,1,6,1,1,0
594095809,15251870,34.0348603,108.7564941,19.9488,1.7483,-2.14366,0.0727096,0.0925826,0.0,0.773079,-0.0894338,-0.572621,-0.154997,-0.0110595,-0.336131,0.338236,-0.338665,0.201151,-3.80416,0.0609776,0.0237014,425.28,1.49738,0.282646,0.391869,0.138093,0.105351,inf,inf,inf,inf,1,1,1,1,2,0,2,1,6,1,1,0
594205905,15251870,34.0348603,108.7564941,20.0324,1.74338,-2.16444,0.0727096,0.0925826,0.0,0.767262,-0.0818119,-0.527415,-0.117847,-0.0110595,-0.336131,0.338236,2.24766,-0.0948776,5.14825,0.0585055,0.0237014,425.28,1.51816,0.274942,0.390001,0.133665,0.104044,inf,inf,inf,inf,1,1,1,1,2,0,2,1,6,1,1,0
594295983,15251870,34.0348603,108.7564941,20.1022,1.73933,-2.17816,0.0727096,0.0925826,0.0,0.759606,-0.0766811,-0.535841,-0.129595,-0.0110595,-0.336131,0.338236,0.900731,-0.758121,2.13659,0.0588439,0.0237014,425.28,1.53187,0.282798,0.391105,0.137823,0.105235,inf,inf,inf,inf,1,1,1,1,2,0,2,1,6,1,1,0
594406080,15251870,34.0348603,108.7564941,20.1862,1.73433,-2.19628,0.0727096,0.0925826,0.0,0.749427,-0.0718853,-0.523467,-0.123071,-0.0110595,-0.336131,0.338236,-0.591511,1.29846,2.50388,0.0580742,0.0237014,425.28,1.55,0.275197,0.389259,0.133548,0.103947,inf,inf,inf,inf,1,1,1,1,2,0,2,1,6,1,1,0
594496157,15251870,34.0348603,108.7564941,20.2545,1.73012,-2.20755,0.0727096,0.0925826,0.0,0.745906,-0.065229,-0.501905,-0.104764,-0.0110595,-0.336131,0.338236,-1.3626,-0.46716,-3.82667,0.0592597,0.0237014,425.28,1.56126,0.283054,0.392804,0.137705,0.105402,inf,inf,inf,inf,1,1,1,1,2,0,2,1,6,1,1,0
594596244,15251870,34.0348603,108.7564941,20.329,1.72473,-2.21586,0.0727096,0.0925826,0.0,0.738328,-0.084988,-0.438237,-0.0448966,-0.0110595,-0.336131,0.338236,-0.819854,-6.87511,-3.70051,0.0620521,0.0237014,425.28,1.56958,0.274571,0.390278,0.132926,0.103918,inf,inf,inf,inf,1,1,1,1,2,0,2,1,6,1,1,0
594696331,15251870,34.0348603,108.7564941,20.4004,1.71739,-2.21627,0.0727096,0.0925826,0.0,0.721793,-0.0697945,-0.361068,0.0301976,-0.0110595,-0.336131,0.338236,0.170951,-0.0457285,0.0925521,0.0638017,0.0237014,425.28,1.56999,0.283267,0.392051,0.137276,0.1053,inf,inf,inf,inf,1,1,1,1,2,0,2,1,6,1,1,0
594796418,15251870,34.0348603,108.7564941,20.4706,1.71076,-2.21209,0.0727096,0.0925826,0.0,0.723915,-0.0750902,-0.246693,0.138699,-0.0110595,-0.336131,0.338236,0.819386,-0.67374,7.65919,0.0649617,0.0237014,425.28,1.56581,0.274796,0.38954,0.132386,0.10382,inf,inf,inf,inf,1,1,1,1,2,0,2,1,6,1,1,0
594906514,15251870,34.0348603,108.7564941,20.545,1.70557,-2.20169,0.0727096,0.0925826,0.0,0.707001,-0.06766,-0.173749,0.201984,-0.0110595,-0.336131,0.338236,0.439851,2.50833,3.85596,0.0656256,0.0237014,425.28,1.55541,0.284368,0.391974,0.137098,0.10539,inf,inf,inf,inf,1,1,1,1,2,0,2,1,6,1,1,0
594996592,15251870,34.0348603,108.7564941,20.6053,1.70033,-2.18994,0.0727096,0.0925826,0.0,0.707711,-0.073796,-0.128455,0.23718,-0.0110595,-0.336131,0.338236,-0.901617,2.04879,-3.85801,0.0672838,0.0237014,425.28,1.54366,0.274957,0.3888,0.131714,0.103709,inf,inf,inf,inf,1,1,1,1,2,0,2,1,6,1,1,0
595096688,15251870,34.0348603,108.7564941,20.6723,1.6932,-2.16951,0.0727096,0.0925826,0.0,0.737101,-0.0795499,-0.0269503,0.328299,-0.0110595,-0.336131,0.338236,0.0450955,-3.49403,2.16263,0.0677227,0.0237014,425.28,1.52323,0.283597,0.390551,0.136031,0.105085,inf,inf,inf,inf,1,1,1,1,2,0,2,1,6,1,1,0
595196766,15251870,34.0348603,108.7564941,20.7435,1.6869,-2.14508,0.0727096,0.0925826,0.0,0.774091,-0.0549441,0.0327091,0.376364,-0.0110595,-0.336131,0.338236,1.46136,0.836526,1.9908,0.0673788,0.0237014,425.28,1.4988,0.292756,0.39486,0.140245,0.106726,inf,inf,inf,inf,1,1,1,1,2,0,2,1,6,1,1,0
595296853,15251870,34.0348603,108.7564941,20.8176,1.68271,-2.11548,0.0727096,0.0925826,0.0,0.807618,-0.0455146,0.0726685,0.405379,-0.0110595,-0.336131,0.338236,-0.4507,4.90397,-1.55306,0.0675931,0.0237014,425.28,1.4692,0.28355,0.392246,0.135231,0.105216,inf,inf,inf,inf,1,1,1,1,2,0,2,1,6,1,1,0
595396940,15251870,34.0348603,108.7564941,20.8969,1.67799,-2.08044,0.0727096,0.0925826,0.0,0.855915,-0.0675356,0.144041,0.467068,-0.0110595,-0.336131,0.338236,0.496059,-5.33754,2.07852,0.0692591,0.0237014,425.28,1.43415,0.275114,0.389737,0.130574,0.103728,inf,inf,inf,inf,1,1,1,1,2,0,2,1,6,1,1,0
595497027,15251870,34.0348603,108.7564941,20.9792,1.67264,-2.03872,0.0727096,0.0925826,0.0,0.876793,-0.037544,0.167878,0.484496,-0.0110595,-0.336131,0.338236,0.484833,-0.461647,-1.91675,0.0712464,0.0237014,425.28,1.39244,0.283688,0.391513,0.134894,0.105108,inf,inf,inf,inf,1,1,1,1,2,0,2,1,6,1,1,0
595597114,15251870,34.0348603,108.7564941,21.0635,1.6692,-1.99221,0.0727096,0.0925826,0.0,0.894634,-0.0223084,0.234236,0.544863,-0.0110595,-0.336131,0.338236,0.704553,2.92147,5.44762,0.0728302,0.0237014,425.28,1.34593,0.27527,0.389018,0.130314,0.103626,inf,inf,inf,inf,1,1,1,1,2,0,2,1,6,1,1,0
595697201,15251870,34.0348603,108.7564941,21.145,1.6692,-1.94267,0.0727096,0.0925826,0.0,0.892094,-0.0210161,0.201251,0.507907,-0.0110595,-0.336131,0.338236,-0.749267,3.49666,-1.44272,0.0754135,0.0237014,425.28,1.29639,0.283827,0.390774,0.134619,0.105002,inf,inf,inf,inf,1,1,1,1,2,0,2,1,6,1,1,0
595802294,15251870,34.0348603,108.7564941,21.2308,1.66913,-1.89531,0.0727096,0.0925826,0.0,0.912085,-0.0180207,0.158954,0.460823,-0.0110595,-0.336131,0.338236,2.04366,-1.09017,4.28791,0.0780211,0.0237014,425.28,1.24903,0.276253,0.388948,0.130682,0.103717,inf,inf,inf,inf,1,1,1,1,2,0,2,1,6,1,1,0
595902379,15251870,34.0348603,108.7564941,21.3126,1.66844,-1.85633,0.0727096,0.0925826,0.0,0.928246,-0.0186227,0.0738969,0.374363,-0.0110595,-0.336131,0.338236,1.54863,0.542514,5.32563,0.0808796,0.0237014,425.28,1.21005,0.284856,0.390716,0.135376,0.105095,inf,inf,inf,inf,1,1,1,1,2,0,2,1,6,1,1,0
596002466,15251870,34.0348603,108.7564941,21.3991,1.66549,-1.82465,0.0727096,0.0925826,0.0,0.94004,-0.0317109,-0.0178911,0.281864,-0.0110595,-0.336131,0.338236,-0.325198,3.74915,-4.71413,0.0818247,0.0237014,425.28,1.17837,0.276437,0.390644,0.131024,0.103882,inf,inf,inf,inf,1,1,1,1,2,0,2,1,6,1,1,0
596102553,15251870,34.0348603,108.7564941,21.4905,1.66204,-1.79147,0.0727096,0.0925826,0.0,0.961623,-0.041682,-0.0240964,0.280222,-0.0110595,-0.336131,0.338236,0.223506,2.81684,3.00141,0.0826502,0.0237014,425.28,1.14519,0.285057,0.392426,0.135966,0.105264,inf,inf,inf,inf,1,1,1,1,2,0,2,1,6,1,1,0
596202640,15251870,34.0348603,108.7564941,21.5838,1.65915,-1.76315,0.0727096,0.0925826,0.0,0.967958,-0.0281251,-0.130162,0.178573,-0.0110595,-0.336131,0.338236,-1.20264,2.27788,-12.1172,0.084799,0.0237014,425.28,1.11687,0.276496,0.389899,0.131421,0.10376,inf,inf,inf,inf,1,1,1,1,2,0,2,1,6,1,1,0
596302727,15251870,34.0348603,108.7564941,21.6742,1.66451,-1.72938,0.0727096,0.0925826,0.0,0.981564,-0.0183411,-0.116268,0.206243,-0.0110595,-0.336131,0.338236,1.30283,-5.0772,1.46532,0.0849813,0.0237014,425.28,1.0831,0.285116,0.391651,0.136289,0.105135,inf,inf,inf,inf,1,1,1,1,2,0,2,1,6,1,1,0
596402814,15251870,34.0348603,108.7564941,21.7679,1.67017,-1.70214,0.0727096,0.0925826,0.0,0.982875,0.0290441,-0.178112,0.154133,-0.0110595,-0.336131,0.338236,-0.128902,4.49256,2.76436,0.0812497,0.0237014,425.28,1.05585,0.276654,0.389124,0.131787,0.103644,inf,inf,inf,inf,1,1,1,1,2,0,2,1,6,1,1,0
596502901,15251870,34.0348603,108.7564941,21.8643,1.67907,-1.67125,0.0727096,0.0925826,0.0,1.00517,0.0476137,-0.196613,0.151199,-0.0110595,-0.336131,0.338236,0.870671,-1.71523,2.18371,0.0791118,0.0237014,425.28,1.02497,0.285284,0.390864,0.136638,0.105015,inf,inf,inf,inf,1,1,1,1,2,0,2,1,6,1,1,0
596602988,15251870,34.0348603,108.7564941,21.9634,1.68784,-1.6484,0.0727096,0.0925826,0.0,1.01916,0.0638688,-0.273451,0.0843701,-0.0110595,-0.336131,0.338236,-0.466322,3.29792,-5.39505,0.0772705,0.0237014,425.28,1.00212,0.276828,0.390776,0.132193,0.10379,inf,inf,inf,inf,1,1,1,1,2,0,2,1,6,1,1,0
596703075,15251870,34.0348603,108.7564941,22.0658,1.69538,-1.62244,0.0727096,0.0925826,0.0,1.02711,0.0543401,-0.303086,0.0713365,-0.0110595,-0.336131,0.338236,0.418794,-0.668538,5.09113,0.0749174,0.0237014,425.28,0.976161,0.285465,0.392546,0.136995,0.105169,inf,inf,inf,inf,1,1,1,1,2,0,2,1,6,1,1,0
596803161,15251870,34.0348603,108.7564941,22.1665,1.70008,-1.60924,0.0727096,0.0925826,0.0,1.01317,0.0179898,-0.40812,-0.0252795,-0.0110595,-0.336131,0.338236,-1.05167,3.93585,-4.16199,0.0759036,0.0237014,425.28,0.962958,0.277042,0.390014,0.132468,0.103682,inf,inf,inf,inf,1,1,1,1,2,0,2,1,6,1,1,0
596903248,15251870,34.0348603,108.7564941,22.2613,1.70695,-1.60063,0.0727096,0.0925826,0.0,1.02669,0.0196602,-0.425391,-0.0330454,-0.0110595,-0.336131,0.338236,0.0134724,1.59379,3.83791,0.0788325,0.0237014,425.28,0.954352,0.285691,0.391765,0.137435,0.105056,inf,inf,inf,inf,1,1,1,1,2,0,2,1,6,1,1,0
597003336,15251870,34.0348603,108.7564941,22.3576,1.71211,-1.60371,0.0727096,0.0925826,0.0,0.999275,0.0179639,-0.486451,-0.0933722,-0.0110595,-0.336131,0.338236,-1.28694,0.11217,-3.62062,0.0792868,0.0237014,425.28,0.957426,0.294891,0.393578,0.142361,0.106416,inf,inf,inf,inf,1,1,1,1,2,0,2,1,6,1,1,0
597103425,15251870,34.0348603,108.7564941,22.4565,1.71674,-1.5962,0.0727096,0.0925826,0.0,0.993574,0.0194818,-0.505413,-0.0977191,-0.0110595,-0.336131,0.338236,-0.347044,-1.39169,-1.58746,0.0847534,0.0237014,425.28,0.949917,0.28571,0.390984,0.137505,0.104919,inf,inf,inf,inf,1,1,1,1,2,0,2,1,6,1,1,0
597203509,15251870,34.0348603,108.7564941,22.5557,1.72109,-1.60212,0.0727096,0.0925826,0.0,0.98918,0.0335656,-0.532006,-0.120833,-0.0110595,-0.336131,0.338236,0.175375,1.66606,9.79894,0.0891393,0.0237014,425.28,0.955835,0.2949,0.392783,0.14236,0.106275,inf,inf,inf,inf,1,1,1,1,2,0,2,1,6,1,1,0
597303598,15251870,34.0348603,108.7564941,22.657,1.72666,-1.6009,0.0727096,0.0925826,0.0,0.993862,0.0371045,-0.562203,-0.138637,-0.0110595,-0.336131,0.338236,-0.318295,-0.319493,-1.73333,0.0862591,0.0237014,425.28,0.954622,0.285783,0.392656,0.137507,0.105052,inf,inf,inf,inf,1,1,1,1,2,0,2,1,6,1,1,0
597403689,15251870,34.0348603,108.7564941,22.7587,1.73051,-1.60399,0.0727096,0.0925826,0.0,1.00659,0.0276996,-0.534799,-0.105215,-0.0110595,-0.336131,0.338236,-0.0971735,-0.965153,-1.06296,0.0837365,0.0237014,425.28,0.957708,0.277406,0.390136,0.132944,0.103575,inf,inf,inf,inf,1,1,1,1,2,0,2,1,6,1,1,0
597493772,15251870,34.0348603,108.7564941,22.8495,1.73252,-1.6007,0.0727096,0.0925826,0.0,1.01134,0.0368154,-0.510937,-0.07317,-0.0110595,-0.336131,0.338236,0.138661,2.60209,-0.635938,0.0792445,0.0237014,425.28,0.954417,0.285158,0.391224,0.137062,0.104759,inf,inf,inf,inf,1,1,1,1,2,0,2,1,6,1,1,0
597603857,15251870,34.0348603,108.7564941,22.962,1.73666,-1.60221,0.0727096,0.0925826,0.0,1.02258,0.0360955,-0.503089,-0.0626303,-0.0110595,-0.336131,0.338236,-0.0887508,-0.765938,0.702617,0.0773142,0.0237014,425.28,0.95593,0.277673,0.389389,0.132708,0.103477,inf,inf,inf,inf,1,1,1,1,2,0,2,1,6,1,1,0
597703944,15251870,34.0348603,108.7564941,23.066,1.7453,-1.60499,0.0727096,0.0925826,0.0,1.01841,0.0504488,-0.552676,-0.109932,-0.0110595,-0.336131,0.338236,-0.757362,-3.83291,-7.96705,0.077237,0.0237014,425.28,0.958704,0.286303,0.391135,0.137256,0.104848,inf,inf,inf,inf,1,1,1,1,2,0,2,1,6,1,1,0
597804031,15251870,34.0348603,108.7564941,23.1693,1.7534,-1.61561,0.0727096,0.0925826,0.0,1.01489,0.0608635,-0.522336,-0.08358,-0.0110595,-0.336131,0.338236,1.06246,-1.64225,3.76865,0.0775768,0.0237014,425.28,0.969326,0.277894,0.391049,0.132662,0.103634,inf,inf,inf,inf,1,1,1,1,2,0,2,1,6,1,1,0
597904118,15251870,34.0348603,108.7564941,23.2722,1.7585,-1.62451,0.0727096,0.0925826,0.0,0.992153,0.0713744,-0.555403,-0.117338,-0.0110595,-0.336131,0.338236,-0.930088,4.45457,2.39648,0.0745833,0.0237014,425.28,0.978233,0.286523,0.392792,0.137224,0.105006,inf,inf,inf,inf,1,1,1,1,2,0,2,1,6,1,1,0
597994196,15251870,34.0348603,108.7564941,23.3624,1.76382,-1.63927,0.0727096,0.0925826,0.0,0.982646,0.0618865,-0.552249,-0.120994,-0.0110595,-0.336131,0.338236,0.349215,1.50962,-1.09437,0.0718561,0.0237014,425.28,0.99299,0.277283,0.389588,0.132145,0.103334,inf,inf,inf,inf,1,1,1,1,2,0,2,1,6,1,1,0
598104292,15251870,34.0348603,108.7564941,23.4654,1.77775,-1.66057,0.0727096,0.0925826,0.0,0.958983,0.0712358,-0.582038,-0.160667,-0.0110595,-0.336131,0.338236,-1.26296,3.89691,-6.55007,0.0707768,0.0237014,425.28,1.01429,0.286744,0.391966,0.137216,0.10489,inf,inf,inf,inf,1,1,1,1,2,0,2,1,6,1,1,0
598194370,15251870,34.0348603,108.7564941,23.5487,1.78806,-1.68216,0.0727096,0.0925826,0.0,0.934222,0.0666584,-0.581915,-0.171785,-0.0110595,-0.336131,0.338236,-1.226,-0.230765,-6.02778,0.0681955,0.0237014,425.28,1.03588,0.294966,0.393069,0.141395,0.106054,inf,inf,inf,inf,1,1,1,1,2,0,2,1,6,1,1,0
598304466,15251870,34.0348603,108.7564941,23.6485,1.79984,-1.70508,0.0727096,0.0925826,0.0,0.916449,0.0711528,-0.54632,-0.145726,-0.0110595,-0.336131,0.338236,0.21316,-3.36949,-5.60576,0.065043,0.0237014,425.28,1.0588,0.286844,0.391143,0.136941,0.104765,inf,inf,inf,inf,1,1,1,1,2,0,2,1,6,1,1,0
598404552,15251870,34.0348603,108.7564941,23.7384,1.81112,-1.72335,0.0727096,0.0925826,0.0,0.88804,0.0981556,-0.466598,-0.0758086,-0.0110595,-0.336131,0.338236,0.678619,3.14178,4.541,0.0637662,0.0237014,425.28,1.07707,0.278407,0.391059,0.132302,0.103556,inf,inf,inf,inf,1,1,1,1,2,0,2,1,6,1,1,0
598494630,15251870,34.0348603,108.7564941,23.8208,1.82337,-1.73428,0.0727096,0.0925826,0.0,0.872701,0.0963884,-0.431578,-0.0474275,-0.0110595,-0.336131,0.338236,-0.658286,3.31544,-0.62711,0.0610159,0.0237014,425.28,1.08799,0.286127,0.392133,0.136133,0.104739,inf,inf,inf,inf,1,1,1,1,2,0,2,1,6,1,1,0
598604726,15251870,34.0348603,108.7564941,23.9194,1.83694,-1.74426,0.0727096,0.0925826,0.0,0.858429,0.100909,-0.386699,-0.0122695,-0.0110595,-0.336131,0.338236,-0.213324,-1.88914,-5.51766,0.0590282,0.0237014,425.28,1.09798,0.278666,0.390269,0.131943,0.103467,inf,inf,inf,inf,1,1,1,1,2,0,2,1,6,1,1,0
598694804,15251870,34.0348603,108.7564941,23.9978,1.84585,-1.74725,0.0727096,0.0925826,0.0,0.835985,0.10548,-0.319292,0.0485225,-0.0110595,-0.336131,0.338236,0.565051,1.95327,0.80215,0.0592812,0.0237014,425.28,1.10097,0.286374,0.391335,0.135801,0.104647,inf,inf,inf,inf,1,1,1,1,2,0,2,1,6,1,1,0
598804900,15251870,34.0348603,108.7564941,24.0875,1.85808,-1.74957,0.0727096,0.0925826,0.0,0.765584,0.0990527,-0.292529,0.0655482,-0.0110595,-0.336131,0.338236,-0.742653,-1.87436,-1.43908,0.0605509,0.0237014,425.28,1.10329,0.278914,0.389495,0.131521,0.103382,inf,inf,inf,inf,1,1,1,1,2,0,2,1,6,1,1,0
598894982,15251870,34.0348603,108.7564941,24.1534,1.86911,-1.75095,0.0727096,0.0925826,0.0,0.689934,0.0925765,-0.26709,0.0818584,-0.0110595,-0.336131,0.338236,-0.116751,-1.6706,-0.531129,0.0626078,0.0237014,425.28,1.10467,0.286611,0.390553,0.135493,0.10456,inf,inf,inf,inf,1,1,1,1,2,0,2,1,6,1,1,0
599005073,15251870,34.0348603,108.7564941,24.2243,1.88252,-1.75114,0.0727096,0.0925826,0.0,0.567333,0.102145,-0.238187,0.0999366,-0.0110595,-0.336131,0.338236,-0.789267,-0.569033,-0.262926,0.0607924,0.0237014,425.28,1.10486,0.279151,0.388721,0.131318,0.103295,inf,inf,inf,inf,1,1,1,1,2,0,2,1,6,1,1,0
599105160,15251870,34.0348603,108.7564941,24.2802,1.89401,-1.74604,0.0727096,0.0925826,0.0,0.471708,0.0950105,-0.191284,0.139417,-0.0110595,-0.336131,0.338236,-0.846303,3.05896,3.13399,0.0592497,0.0237014,425.28,1.09976,0.287722,0.392895,0.135862,0.104922,inf,inf,inf,inf,1,1,1,1,2,0,2,1,6,1,1,0
599195239,15251870,34.0348603,108.7564941,24.3245,1.90238,-1.73919,0.0727096,0.0925826,0.0,0.428811,0.0858922,-0.160647,0.162705,-0.0110595,-0.336131,0.338236,-0.245462,2.12449,-0.885684,0.0567676,0.0237014,425.28,1.09291,0.278557,0.389721,0.130797,0.103269,inf,inf,inf,inf,1,1,1,1,2,0,2,1,6,1,1,0
599305334,15251870,34.0348603,108.7564941,24.3767,1.91119,-1.72778,0.0727096,0.0925826,0.0,0.399561,0.0832554,-0.147499,0.169224,-0.0110595,-0.336131,0.338236,-0.350983,0.759632,2.85599,0.0531673,0.0237014,425.28,1.08149,0.287949,0.392119,0.135634,0.104828,inf,inf,inf,inf,1,1,1,1,2,0,2,1,6,1,1,0
599395412,15251870,34.0348603,108.7564941,24.4188,1.91887,-1.71704,0.0727096,0.0925826,0.0,0.40623,0.074716,-0.111944,0.199301,-0.0110595,-0.336131,0.338236,0.309565,-2.92034,3.65439,0.0512369,0.0237014,425.28,1.07076,0.278785,0.388946,0.130699,0.103183,inf,inf,inf,inf,1,1,1,1,2,0,2,1,6,1,1,0
599505508,15251870,34.0348603,108.7564941,24.4755,1.93061,-1.69348,0.0727096,0.0925826,0.0,0.434716,0.0882813,-0.0839572,0.22658,-0.0110595,-0.336131,0.338236,0.337509,2.21906,-2.16061,0.0484755,0.0237014,425.28,1.04719,0.288173,0.391317,0.135624,0.10474,inf,inf,inf,inf,1,1,1,1,2,0,2,1,6,1,1,0
599595586,15251870,34.0348603,108.7564941,24.5214,1.93843,-1.67062,0.0727096,0.0925826,0.0,0.446755,0.0595492,-0.0503243,0.259858,-0.0110595,-0.336131,0.338236,-0.623432,-2.51932,-2.49896,0.048396,0.0237014,425.28,1.02434,0.279038,0.390581,0.130621,0.103355,inf,inf,inf,inf,1,1,1,1,2,0,2,1,6,1,1,0
599695677,15251870,34.0348603,108.7564941,24.5719,1.94443,-1.63894,0.0727096,0.0925826,0.0,0.456052,0.062828,-0.0450796,0.269541,-0.0110595,-0.336131,0.338236,-0.379973,-0.404516,2.1511,0.0495883,0.0237014,425.28,0.992658,0.287542,0.392318,0.134943,0.104728,inf,inf,inf,inf,1,1,1,1,2,0,2,1,6,1,1,0
599805768,15251870,34.0348603,108.7564941,24.6276,1.95084,-1.60883,0.0727096,0.0925826,0.0,0.474732,0.0450217,-0.116738,0.199775,-0.0110595,-0.336131,0.338236,-1.48043,-0.998401,-11.3669,0.0504621,0.0237014,425.28,0.962544,0.280111,0.390462,0.130943,0.10346,inf,inf,inf,inf,1,1,1,1,2,0,2,1,6,1,1,0
599895846,15251870,34.0348603,108.7564941,24.673,1.95659,-1.58562,0.0727096,0.0925826,0.0,0.490364,0.0297245,-0.115784,0.203726,-0.0110595,-0.336131,0.338236,-0.375307,-5.75041,-3.44558,0.051053,0.0237014,425.28,0.939339,0.287786,0.391527,0.135167,0.104641,inf,inf,inf,inf,1,1,1,1,2,0,2,1,6,1,1,0
600005942,15251870,34.0348603,108.7564941,24.7305,1.96251,-1.55634,0.0727096,0.0925826,0.0,0.505971,0.0346994,-0.149161,0.177237,-0.0110595,-0.336131,0.338236,-0.157853,-1.76084,-4.70996,0.0539835,0.0237014,425.28,0.910054,0.280391,0.389693,0.131229,0.103389,inf,inf,inf,inf,1,1,1,1,2,0,2,1,6,1,1,0
600096020,15251870,34.0348603,108.7564941,24.7784,1.96606,-1.52973,0.0727096,0.0925826,0.0,0.508991,-0.00045599,-0.174989,0.160467,-0.0110595,-0.336131,0.338236,-0.854553,-5.03881,-8.82673,0.0555844,0.0237014,425.28,0.883452,0.288084,0.390752,0.13544,0.104568,inf,inf,inf,inf,1,1,1,1,2,0,2,1,6,1,1,0
600196107,15251870,34.0348603,108.7564941,24.8302,1.96723,-1.50821,0.0727096,0.0925826,0.0,0.51328,-0.0172755,-0.196452,0.143557,-0.0110595,-0.336131,0.338236,0.702265,-2.48081,1.40822,0.0571844,0.0237014,425.28,0.861926,0.279693,0.388269,0.131055,0.103105,inf,inf,inf,inf,1,1,1,1,2,0,2,1,6,1,1,0
600296196,15251870,34.0348603,108.7564941,24.8754,1.96743,-1.48877,0.0727096,0.0925826,0.0,0.501232,-0.050259,-0.278642,0.0680172,-0.0110595,-0.336131,0.338236,-1.926,-2.93483,-7.75609,0.0594079,0.0237014,425.28,0.842486,0.288216,0.392422,0.13564,0.104737,inf,inf,inf,inf,1,1,1,1,2,0,2,1,6,1,1,0
600396288,15251870,34.0348603,108.7564941,24.9216,1.96446,-1.47973,0.0727096,0.0925826,0.0,0.512322,-0.0681316,-0.324801,0.0237116,-0.0110595,-0.336131,0.338236,0.193328,-4.88457,1.04127,0.0613779,0.0237014,425.28,0.833451,0.279829,0.389917,0.131413,0.10327,inf,inf,inf,inf,1,1,1,1,2,0,2,1,6,1,1,0
600506376,15251870,34.0348603,108.7564941,24.9694,1.95886,-1.47111,0.0727096,0.0925826,0.0,0.535299,-0.0754072,-0.416221,-0.0575328,-0.0110595,-0.336131,0.338236,1.00731,-0.00402398,2.39425,0.0600432,0.0237014,425.28,0.824832,0.289241,0.392317,0.136513,0.104834,inf,inf,inf,inf,1,1,1,1,2,0,2,1,6,1,1,0
600596454,15251870,34.0348603,108.7564941,25.0133,1.95417,-1.47399,0.0727096,0.0925826,0.0,0.553643,-0.0495252,-0.507224,-0.143178,-0.0110595,-0.336131,0.338236,0.0811089,3.85294,-1.18851,0.0505905,0.0237014,425.28,0.827706,0.280062,0.389158,0.131869,0.103192,inf,inf,inf,inf,1,1,1,1,2,0,2,1,6,1,1,0
600696551,15251870,34.0348603,108.7564941,25.069,1.95162,-1.47883,0.0727096,0.0925826,0.0,0.582088,-0.0642163,-0.580346,-0.20572,-0.0110595,-0.336131,0.338236,0.0461473,-2.45938,2.78249,0.0246397,0.0237014,425.28,0.832549,0.288618,0.390882,0.136858,0.104562,inf,inf,inf,inf,1,1,1,1,2,0,2,1,6,1,1,0
600796628,15251870,34.0348603,108.7564941,25.1266,1.94901,-1.49779,0.0727096,0.0925826,0.0,0.592994,-0.0386474,-0.645098,-0.266974,-0.0110595,-0.336131,0.338236,0.171384,3.7001,-4.24497,-0.0140561,0.0237014,425.28,0.851506,0.280204,0.388408,0.132324,0.103102,inf,inf,inf,inf,1,1,1,1,2,0,2,1,6,1,1,0
600896715,15251870,34.0348603,108.7564941,25.1852,1.94846,-1.50657,0.0727096,0.0925826,0.0,0.599434,-0.0285779,-0.658069,-0.264348,-0.0110595,-0.336131,0.338236,-0.53309,-2.44038,1.72658,-0.0542184,0.0237014,425.28,0.860292,0.288765,0.390123,0.137305,0.104469,inf,inf,inf,inf,1,1,1,1,2,0,2,1,6,1,1,0
600996801,15251870,34.0348603,108.7564941,25.2449,1.9458,-1.52038,0.0727096,0.0925826,0.0,0.609138,-0.0287748,-0.654652,-0.250671,-0.0110595,-0.336131,0.338236,-0.510066,0.380088,-2.03903,-0.0953982,0.0237014,425.28,0.874101,0.280539,0.390085,0.13273,0.103296,inf,inf,inf,inf,1,1,1,1,2,0,2,1,6,1,1,0
601096888,15251870,34.0348603,108.7564941,25.3054,1.93869,-1.53152,0.0727096,0.0925826,0.0,0.612432,-0.040747,-0.662999,-0.246969,-0.0110595,-0.336131,0.338236,0.107178,-4.57422,2.45083,-0.134528,0.0237014,425.28,0.885236,0.289126,0.391832,0.137449,0.104673,inf,inf,inf,inf,1,1,1,1,2,0,2,1,6,1,1,0
601196975,15251870,34.0348603,108.7564941,25.3669,1.93209,-1.5494,0.0727096,0.0925826,0.0,0.61644,-0.041813,-0.666576,-0.246553,-0.0110595,-0.336131,0.338236,-1.36906,-2.81251,-1.30742,-0.170957,0.0237014,425.28,0.903115,0.280751,0.389349,0.132661,0.103211,inf,inf,inf,inf,1,1,1,1,2,0,2,1,6,1,1,0
601297062,15251870,34.0348603,108.7564941,25.4297,1.92274,-1.55987,0.0727096,0.0925826,0.0,0.611518,-0.0582205,-0.678202,-0.248155,-0.0110595,-0.336131,0.338236,-1.88249,-0.327979,-4.93204,-0.203968,0.0237014,425.28,0.913587,0.289331,0.391086,0.13732,0.104585,inf,inf,inf,inf,1,1,1,1,2,0,2,1,6,1,1,0
601397150,15251870,34.0348603,108.7564941,25.4909,1.91209,-1.57927,0.0727096,0.0925826,0.0,0.611864,-0.0632504,-0.683282,-0.251929,-0.0110595,-0.336131,0.338236,-0.787181,-0.143557,-8.00605,-0.237316,0.0237014,425.28,0.932992,0.281012,0.3886,0.132638,0.103133,inf,inf,inf,inf,1,1,1,1,2,0,2,1,6,1,1,0
601497246,15251870,34.0348603,108.7564941,25.5497,1.8976,-1.59423,0.0727096,0.0925826,0.0,0.611265,-0.0861951,-0.62705,-0.192212,-0.0110595,-0.336131,0.338236,-0.870633,-1.11527,1.10898,-0.272612,0.0237014,425.28,0.947944,0.28959,0.390312,0.137207,0.1045,inf,inf,inf,inf,1,1,1,1,2,0,2,1,6,1,1,0
601597323,15251870,34.0348603,108.7564941,25.609,1.8833,-1.6128,0.0727096,0.0925826,0.0,0.598154,-0.100666,-0.622862,-0.190316,-0.0110595,-0.336131,0.338236,-0.935318,-0.175403,1.9078,-0.308472,0.0237014,425.28,0.966523,0.281269,0.390253,0.13248,0.103309,inf,inf,inf,inf,1,1,1,1,2,0,2,1,6,1,1,0
601697422,15251870,34.0348603,108.7564941,25.6697,1.86848,-1.62435,0.0727096,0.0925826,0.0,0.596659,-0.128631,-0.579251,-0.144106,-0.0110595,-0.336131,0.338236,-1.62709,-4.25516,1.31202,-0.35043,0.0237014,425.28,0.97807,0.289842,0.391996,0.137085,0.104685,inf,inf,inf,inf,1,1,1,1,2,0,2,1,6,1,1,0
601802500,15251870,34.0348603,108.7564941,25.7337,1.85261,-1.63845,0.0727096,0.0925826,0.0,0.590798,-0.122685,-0.547466,-0.116244,-0.0110595,-0.336131,0.338236,-1.50702,-2.65659,4.47617,-0.402892,0.0237014,425.28,0.992173,0.282274,0.39015,0.132699,0.103407,inf,inf,inf,inf,1,1,1,1,2,0,2,1,6,1,1,0
601902587,15251870,34.0348603,108.7564941,25.7961,1.84064,-1.65181,0.0727096,0.0925826,0.0,0.594312,-0.0989992,-0.549473,-0.121126,-0.0110595,-0.336131,0.338236,2.02384,2.41743,-0.766794,-0.462037,0.0237014,425.28,1.00553,0.290881,0.391889,0.137329,0.104779,inf,inf,inf,inf,1,1,1,1,2,0,2,1,6,1,1,0
602002680,15251870,34.0348603,108.7564941,25.8584,1.82752,-1.66606,0.0727096,0.0925826,0.0,0.580931,-0.129046,-0.47469,-0.0532033,-0.0110595,-0.336131,0.338236,-2.36358,-2.90141,4.77624,-0.530674,0.0237014,425.28,1.01978,0.282389,0.389397,0.132465,0.103329,inf,inf,inf,inf,1,1,1,1,2,0,2,1,6,1,1,0
602102760,15251870,34.0348603,108.7564941,25.9211,1.81498,-1.67512,0.0727096,0.0925826,0.0,0.58852,-0.11506,-0.431876,-0.0161238,-0.0110595,-0.336131,0.338236,-2.20211,-1.18238,4.607,-0.614624,0.0237014,425.28,1.02884,0.290978,0.39111,0.136917,0.104693,inf,inf,inf,inf,1,1,1,1,2,0,2,1,6,1,1,0
602202847,15251870,34.0348603,108.7564941,25.9813,1.80292,-1.68658,0.0727096,0.0925826,0.0,0.578317,-0.1185,-0.409565,-0.00602479,-0.0110595,-0.336131,0.338236,-1.32868,-0.142168,2.67228,-0.710065,0.0237014,425.28,1.0403,0.282359,0.391028,0.132252,0.103497,inf,inf,inf,inf,1,1,1,1,2,0,2,1,6,1,1,0
602302934,15251870,34.0348603,108.7564941,26.0373,1.79165,-1.70125,0.0727096,0.0925826,0.0,0.592165,-0.112955,-0.365564,0.020353,-0.0110595,-0.336131,0.338236,4.24577,3.33259,6.20345,-0.812724,0.0237014,425.28,1.05496,0.290925,0.392765,0.136661,0.104868,inf,inf,inf,inf,1,1,1,1,2,0,2,1,6,1,1,0
602403020,15251870,34.0348603,108.7564941,26.0941,1.7773,-1.71533,0.0727096,0.0925826,0.0,0.582024,-0.144411,-0.288189,0.0766061,-0.0110595,-0.336131,0.338236,0.967714,0.153914,6.31939,-0.918634,0.0237014,425.28,1.06905,0.282197,0.390236,0.132067,0.103409,inf,inf,inf,inf,1,1,1,1,2,0,2,1,6,1,1,0
602503107,15251870,34.0348603,108.7564941,26.1531,1.75998,-1.73079,0.0727096,0.0925826,0.0,0.61269,-0.143925,-0.257153,0.0831569,-0.0110595,-0.336131,0.338236,3.58454,2.52188,1.47404,-1.00571,0.0237014,425.28,1.08451,0.290738,0.391964,0.136593,0.104778,inf,inf,inf,inf,1,1,1,1,2,0,2,1,6,1,1,0
602603194,15251870,34.0348603,108.7564941,26.2146,1.74164,-1.74414,0.0727096,0.0925826,0.0,0.617736,-0.179141,-0.196733,0.119579,-0.0110595,-0.336131,0.338236,-0.844816,-2.40052,0.149621,-1.04952,0.0237014,425.28,1.09786,0.281837,0.38946,0.132024,0.103326,inf,inf,inf,inf,1,1,1,1,2,0,2,1,6,1,1,0
602703289,15251870,34.0348603,108.7564941,26.2761,1.71924,-1.75178,0.0727096,0.0925826,0.0,0.610092,-0.205963,-0.112998,0.179109,-0.0110595,-0.336131,0.338236,-0.399536,-0.731536,1.22279,-1.07164,0.0237014,425.28,1.10549,0.290351,0.391179,0.136683,0.104692,inf,inf,inf,inf,1,1,1,1,2,0,2,1,6,1,1,0
602803374,15251870,34.0348603,108.7564941,26.3372,1.69397,-1.75469,0.0727096,0.0925826,0.0,0.620158,-0.243496,-0.0616534,0.206758,-0.0110595,-0.336131,0.338236,-3.06632,-1.59767,-2.89789,-1.08039,0.0237014,425.28,1.10841,0.281359,0.388684,0.131984,0.103242,inf,inf,inf,inf,1,1,1,1,2,0,2,1,6,1,1,0
602903454,15251870,34.0348603,108.7564941,26.3956,1.66532,-1.75822,0.0727096,0.0925826,0.0,0.571421,-0.293942,-0.026747,0.216213,-0.0110595,-0.336131,0.338236,-2.05174,-1.38933,-2.17165,-1.0793,0.0237014,425.28,1.11193,0.289844,0.392853,0.136554,0.104874,inf,inf,inf,inf,1,1,1,1,2,0,2,1,6,1,1,0
603003541,15251870,34.0348603,108.7564941,26.4502,1.6319,-1.75631,0.0727096,0.0925826,0.0,0.536568,-0.33862,0.0151935,0.238066,-0.0110595,-0.336131,0.338236,1.82935,1.09473,2.66382,-1.07354,0.0237014,425.28,1.11002,0.280827,0.390343,0.132175,0.103431,inf,inf,inf,inf,1,1,1,1,2,0,2,1,6,1,1,0
603093619,15251870,34.0348603,108.7564941,26.4963,1.59643,-1.74812,0.0727096,0.0925826,0.0,0.487453,-0.402941,0.0504121,0.259939,-0.0110595,-0.336131,0.338236,-2.31491,-1.81474,1.06089,-1.0634,0.0237014,425.28,1.10184,0.288432,0.391409,0.136512,0.104611,inf,inf,inf,inf,1,1,1,1,2,0,2,1,6,1,1,0
603203721,15251870,34.0348603,108.7564941,26.5454,1.54783,-1.73025,0.0727096,0.0925826,0.0,0.389364,-0.462533,0.0861765,0.285164,-0.0110595,-0.336131,0.338236,-3.90135,-2.13629,2.87745,-1.04888,0.0237014,425.28,1.08397,0.298308,0.393872,0.141821,0.106156,inf,inf,inf,inf,1,1,1,1,2,0,2,1,6,1,1,0
603303810,15251870,34.0348603,108.7564941,26.5905,1.49962,-1.70624,0.0727096,0.0925826,0.0,0.327196,-0.525006,0.0984103,0.294252,-0.0110595,-0.336131,0.338236,-4.61803,-3.86552,2.57024,-1.03356,0.0237014,425.28,1.05996,0.288252,0.391287,0.136964,0.104673,inf,inf,inf,inf,1,1,1,1,2,0,2,1,6,1,1,0
603403887,15251870,34.0348603,108.7564941,26.6298,1.44506,-1.67568,0.0727096,0.0925826,0.0,0.27236,-0.573652,0.137949,0.335851,-0.0110595,-0.336131,0.338236,1.4673,-0.465638,9.4255,-1.01803,0.0237014,425.28,1.0294,0.278977,0.388803,0.132496,0.103226,inf,inf,inf,inf,1,1,1,1,2,0,2,1,6,1,1,0
603503974,15251870,34.0348603,108.7564941,26.6678,1.38579,-1.63602,0.0727096,0.0925826,0.0,0.23773,-0.593304,0.138911,0.34392,-0.0110595,-0.336131,0.338236,1.46997,2.43973,-5.6808,-1.00722,0.0237014,425.28,0.98974,0.287404,0.390524,0.137353,0.104593,inf,inf,inf,inf,1,1,1,1,2,0,2,1,6,1,1,0
603604061,15251870,34.0348603,108.7564941,26.7006,1.32672,-1.59439,0.0727096,0.0925826,0.0,0.157709,-0.584811,0.167952,0.378907,-0.0110595,-0.336131,0.338236,-6.69813,-2.60954,-2.66747,-0.996726,0.0237014,425.28,0.948106,0.278086,0.390463,0.132898,0.103407,inf,inf,inf,inf,1,1,1,1,2,0,2,1,6,1,1,0
603704148,15251870,34.0348603,108.7564941,26.7303,1.27233,-1.54711,0.0727096,0.0925826,0.0,0.115607,-0.507192,0.221874,0.44067,-0.0110595,-0.336131,0.338236,1.18889,1.23102,4.29894,-0.984499,0.0237014,425.28,0.900831,0.28651,0.392183,0.137578,0.104777,inf,inf,inf,inf,1,1,1,1,2,0,2,1,6,1,1,0
603794228,15251870,34.0348603,108.7564941,26.7504,1.22937,-1.49953,0.0727096,0.0925826,0.0,0.0481695,-0.401301,0.21362,0.440639,-0.0110595,-0.336131,0.338236,-3.91657,2.19099,-7.9371,-0.973941,0.0237014,425.28,0.853253,0.276372,0.389001,0.132476,0.103129,inf,inf,inf,inf,1,1,1,1,2,0,2,1,6,1,1,0
603904321,15251870,34.0348603,108.7564941,26.7715,1.18277,-1.42972,0.0727096,0.0925826,0.0,-0.00242037,-0.252818,0.259274,0.502647,-0.0110595,-0.336131,0.338236,5.66974,3.18995,4.72369,-0.963753,0.0237014,425.28,0.783441,0.285609,0.391348,0.137764,0.104668,inf,inf,inf,inf,1,1,1,1,2,0,2,1,6,1,1,0
604004408,15251870,34.0348603,108.7564941,26.7804,1.1547,-1.37153,0.0727096,0.0925826,0.0,-0.102272,-0.135237,0.179297,0.43447,-0.0110595,-0.336131,0.338236,-4.33419,-0.963912,-0.883298,-0.959087,0.0237014,425.28,0.725245,0.276311,0.391268,0.133027,0.103453,inf,inf,inf,inf,1,1,1,1,2,0,2,1,6,1,1,0
604104495,15251870,34.0348603,108.7564941,26.7954,1.12557,-1.37119,0.0727096,0.0925826,0.0,-0.0704208,-0.109876,-0.570997,-0.302305,-0.0110595,-0.336131,0.338236,-7.43468,0.552451,3.38873,-0.967225,0.0237014,425.28,0.724911,0.284737,0.392993,0.138032,0.104807,inf,inf,inf,inf,1,1,1,1,2,0,2,1,6,1,1,0
604204584,15251870,34.0348603,108.7564941,26.802,1.1083,-1.40006,0.0727096,0.0925826,0.0,-0.0964441,-0.049743,-0.772321,-0.489302,-0.0110595,-0.336131,0.338236,-2.70112,1.17761,-7.65741,-0.97065,0.0237014,425.28,0.753783,0.275446,0.390462,0.135336,0.103204,inf,inf,inf,inf,1,1,1,1,2,0,2,1,6,1,1,0
604294659,15251870,34.0348603,108.7564941,26.8105,1.09171,-1.41878,0.0727096,0.0925826,0.0,-0.0853981,-0.0407581,-0.721937,-0.418234,-0.0110595,-0.336131,0.338236,0.605784,1.15759,1.53337,-0.973382,0.0237014,425.28,0.772495,0.283114,0.391487,0.140824,0.10323,inf,inf,inf,inf,1,1,1,1,2,0,2,1,6,1,1,0
604404754,15251870,34.0348603,108.7564941,26.8178,1.07049,-1.43287,0.0727096,0.0925826,0.0,-0.10631,-0.0125817,-0.673808,-0.343565,-0.0110595,-0.336131,0.338236,-2.89573,-0.675822,-0.147423,-0.977129,0.0237014,425.28,0.786584,0.274634,0.389681,0.136117,0.100744,inf,inf,inf,inf,1,1,1,1,2,0,2,1,6,1,1,0
604494833,15251870,34.0348603,108.7564941,26.8251,1.04645,-1.43004,0.0727096,0.0925826,0.0,-0.0900074,-0.000221041,-0.66901,-0.307157,-0.0110595,-0.336131,0.338236,1.28187,-1.96462,5.01936,-0.977152,0.0237014,425.28,0.783762,0.282322,0.390609,0.140214,0.100783,inf,inf,inf,inf,1,1,1,1,2,0,2,1,6,1,1,0
604604928,15251870,34.0348603,108.7564941,26.831,1.02042,-1.43856,0.0727096,0.0925826,0.0,-0.0655862,-0.0286092,-0.723979,-0.336261,-0.0110595,-0.336131,0.338236,0.851338,-0.757378,1.24857,-0.976977,0.0237014,425.28,0.792283,0.27386,0.388837,0.135412,0.0985006,inf,inf,inf,inf,1,1,1,1,2,0,2,1,6,1,1,0
604705014,15251870,34.0348603,108.7564941,26.8355,0.995728,-1.44925,0.0727096,0.0925826,0.0,-0.0601359,-0.027396,-0.758592,-0.349791,-0.0110595,-0.336131,0.338236,3.55276,3.29466,-0.784772,-0.975932,0.0237014,425.28,0.802965,0.282421,0.39277,0.140213,0.0988897,inf,inf,inf,inf,1,1,1,1,2,0,2,1,6,1,1,0
604795092,15251870,34.0348603,108.7564941,26.8367,0.978879,-1.4692,0.0727096,0.0925826,0.0,-0.0709705,-0.00213318,-0.752427,-0.336023,-0.0110595,-0.336131,0.338236,2.77202,2.09266,0.301487,-0.973098,0.0237014,425.28,0.822914,0.272136,0.389725,0.134711,0.0966512,inf,inf,inf,inf,1,1,1,1,2,0,2,1,6,1,1,0
