timestamp,ref_timestamp,ref_lat,ref_lon,x,y,z,delta_xy[0],delta_xy[1],delta_z,vx,vy,vz,z_deriv,delta_vxy[0],delta_vxy[1],delta_vz,ax,ay,az,heading,delta_heading,ref_alt,dist_bottom,eph,epv,evh,evv,vxy_max,vz_max,hagl_min,hagl_max,xy_valid,z_valid,v_xy_valid,v_z_valid,xy_reset_counter,z_reset_counter,vxy_reset_counter,vz_reset_counter,heading_reset_counter,xy_global,z_global,dist_bottom_valid
61872382,26016546,34.0337013,108.7636997,0.80243635,5.6197453,0.18368866,-0.08098992,-0.3500504,0.0,-0.03947033,-0.05324852,0.04343931,-0.020340184,-0.1632025,-0.22137304,-0.13551536,0.31870502,0.028564027,-0.0800083,-2.48339,-0.045761622,446.97424,0.1,0.29963094,0.37978378,0.13532875,0.08517888,inf,inf,inf,inf,1,1,1,1,2,0,2,1,3,1,1,1
61882310,26016546,34.0337013,108.7636997,0.80116105,5.6197534,0.18338518,-0.08098992,-0.3500504,0.0,-0.041482627,-0.05333289,0.044271357,-0.019601539,-0.1632025,-0.22137304,-0.13551536,-0.30626857,-0.041412525,0.103512794,-2.4833808,-0.045761622,446.97424,0.1,0.3004745,0.38033286,0.13577418,0.08528931,inf,inf,inf,inf,1,1,1,1,2,0,2,1,3,1,1,1
61971719,26016546,34.0337013,108.7636997,0.79078084,5.6192465,0.18126284,-0.08098992,-0.3500504,0.0,-0.038534954,-0.04738414,0.041156303,-0.022873959,-0.1632025,-0.22137304,-0.13551536,0.3608481,0.8582491,0.34596282,-2.4842665,-0.045761622,446.97424,0.1,0.3082984,0.38078776,0.13981849,0.08585745,inf,inf,inf,inf,1,1,1,1,2,0,2,1,3,1,1,1
62071230,26016546,34.0337013,108.7636997,0.78090066,5.61854,0.17895666,-0.08098992,-0.3500504,0.0,-0.036134176,-0.035315838,0.04174463,-0.022182414,-0.1632025,-0.22137304,-0.13551536,-0.4514955,-0.2854358,0.8595362,-2.484017,-0.045761622,446.97424,0.1,0.29931897,0.37894067,0.1350293,0.084987044,inf,inf,inf,inf,1,1,1,1,2,0,2,1,3,1,1,1
62175361,26016546,34.0337013,108.7636997,0.7702886,5.6181307,0.1764675,-0.08098992,-0.3500504,0.0,-0.043110285,-0.051412355,0.03909433,-0.025066203,-0.1632025,-0.22137304,-0.13551536,-0.42772183,-0.6421181,0.77254874,-2.4833877,-0.045761622,446.97424,0.1,0.30795604,0.38220572,0.139502,0.08588038,inf,inf,inf,inf,1,1,1,1,2,0,2,1,3,1,1,1
62274698,26016546,34.0337013,108.7636997,0.76044947,5.617287,0.17453256,-0.08098992,-0.3500504,0.0,-0.035491325,-0.04001635,0.04000247,-0.023615986,-0.1632025,-0.22137304,-0.13551536,-0.012228753,0.70909816,-0.812721,-2.483783,-0.045761622,446.97424,0.1,0.29993317,0.38080508,0.13588493,0.08525927,inf,inf,inf,inf,1,1,1,1,2,0,2,1,3,1,1,1
62374037,26016546,34.0337013,108.7636997,0.7487265,5.616444,0.1710413,-0.08098992,-0.3500504,0.0,-0.043573853,-0.044739366,0.04329594,-0.021098489,-0.1632025,-0.22137304,-0.13551536,0.5842499,0.31914642,1.0721356,-2.482821,-0.045761622,446.97424,0.1,0.30865583,0.38182804,0.14037667,0.0859389,inf,inf,inf,inf,1,1,1,1,2,0,2,1,3,1,1,1
62473376,26016546,34.0337013,108.7636997,0.73833483,5.615223,0.16853885,-0.08098992,-0.3500504,0.0,-0.04699219,-0.045602966,0.03586654,-0.02827757,-0.1632025,-0.22137304,-0.13551536,-1.3921093,-1.0848172,-0.28762802,-2.4828968,-0.045761622,446.97424,0.1,0.29945543,0.37995377,0.13523933,0.08504687,inf,inf,inf,inf,1,1,1,1,2,0,2,1,3,1,1,1
62572764,26016546,34.0337013,108.7636997,0.72544855,5.615077,0.16651334,-0.08098992,-0.3500504,0.0,-0.043188382,-0.03861794,0.041028813,-0.0224356,-0.1632025,-0.22137304,-0.13551536,-0.67057663,-0.5423733,-0.9489158,-2.4834318,-0.045761622,446.97424,0.1,0.30812362,0.38095143,0.13970827,0.08572205,inf,inf,inf,inf,1,1,1,1,2,0,2,1,3,1,1,1
62672048,26016546,34.0337013,108.7636997,0.71394444,5.6138263,0.16494274,-0.08098992,-0.3500504,0.0,-0.044775013,-0.03460924,0.047674347,-0.014687501,-0.1632025,-0.22137304,-0.13551536,-1.0985441,0.25312632,1.5489194,-2.4829214,-0.045761622,446.97424,0.1,0.29985663,0.3795037,0.13570502,0.08506362,inf,inf,inf,inf,1,1,1,1,2,0,2,1,3,1,1,1
62771386,26016546,34.0337013,108.7636997,0.69959736,5.6113663,0.1608374,-0.08098992,-0.3500504,0.0,-0.040367305,-0.036303278,0.038769096,-0.025009206,-0.1632025,-0.22137304,-0.13551536,-0.1575888,0.4327087,1.7345039,-2.4818995,-0.045761622,446.97424,0.1,0.30857953,0.38276625,0.14020428,0.08594924,inf,inf,inf,inf,1,1,1,1,2,0,2,1,3,1,1,1
62870856,26016546,34.0337013,108.7636997,0.686592,5.608073,0.15669087,-0.08098992,-0.3500504,0.0,-0.041053545,-0.03578806,0.028479027,-0.03668683,-0.1632025,-0.22137304,-0.13551536,1.5784453,0.53154117,-0.63552064,-2.4813483,-0.045761622,446.97424,0.1,0.29975027,0.3810426,0.13550267,0.08514708,inf,inf,inf,inf,1,1,1,1,2,0,2,1,3,1,1,1
62970061,26016546,34.0337013,108.7636997,0.6734029,5.603777,0.15162194,-0.08098992,-0.3500504,0.0,-0.05291675,-0.034230683,0.030991398,-0.036145803,-0.1632025,-0.22137304,-0.13551536,-0.5044877,0.9761287,-1.723216,-2.4812121,-0.045761622,446.97424,0.1,0.30846503,0.3820457,0.1399812,0.08582007,inf,inf,inf,inf,1,1,1,1,2,0,2,1,3,1,1,1
63069397,26016546,34.0337013,108.7636997,0.66083825,5.599123,0.14631705,-0.08098992,-0.3500504,0.0,-0.050893497,-0.03777709,0.03637891,-0.03269108,-0.1632025,-0.22137304,-0.13551536,-2.255193,0.48743635,-0.3667113,-2.4811814,-0.045761622,446.97424,0.1,0.29966313,0.38039193,0.13546905,0.08505487,inf,inf,inf,inf,1,1,1,1,2,0,2,1,3,1,1,1
63173703,26016546,34.0337013,108.7636997,0.64361787,5.59326,0.13884477,-0.08098992,-0.3500504,0.0,-0.053016707,-0.039643276,0.03473193,-0.038064662,-0.1632025,-0.22137304,-0.13551536,-2.1411324,-0.33574918,-0.103708304,-2.4812615,-0.045761622,446.97424,0.1,0.3083772,0.38138717,0.13995993,0.08572522,inf,inf,inf,inf,1,1,1,1,2,0,2,1,3,1,1,1
63273041,26016546,34.0337013,108.7636997,0.62797177,5.587523,0.13326733,-0.08098992,-0.3500504,0.0,-0.04744728,-0.04295403,0.034933034,-0.03910478,-0.1632025,-0.22137304,-0.13551536,-0.28645113,-1.6120551,0.6489858,-2.4811258,-0.045761622,446.97424,0.1,0.2996569,0.37978035,0.13548376,0.08497851,inf,inf,inf,inf,1,1,1,1,2,0,2,1,3,1,1,1
63372390,26016546,34.0337013,108.7636997,0.6083832,5.5807867,0.12507239,-0.08098992,-0.3500504,0.0,-0.051618766,-0.04035614,0.03097672,-0.04635913,-0.1632025,-0.22137304,-0.13551536,1.8217854,-1.1939154,0.58186793,-2.4806178,-0.045761622,446.97424,0.1,0.3083821,0.38076863,0.14013897,0.0856528,inf,inf,inf,inf,1,1,1,1,2,0,2,1,3,1,1,1
63471716,26016546,34.0337013,108.7636997,0.5915321,5.573867,0.118743315,-0.08098992,-0.3500504,0.0,-0.065592356,-0.039573375,0.028955244,-0.049343407,-0.1632025,-0.22137304,-0.13551536,1.2762676,-0.6637631,0.16365236,-2.4799955,-0.045761622,446.97424,0.1,0.29919317,0.3812109,0.13513678,0.085006736,inf,inf,inf,inf,1,1,1,1,2,0,2,1,3,1,1,1
63571054,26016546,34.0337013,108.7636997,0.5745289,5.5649195,0.111576505,-0.08098992,-0.3500504,0.0,-0.071819074,-0.04525587,0.028746357,-0.05099361,-0.1632025,-0.22137304,-0.13551536,-1.3338578,-0.60703266,0.5916842,-2.4798756,-0.045761622,446.97424,0.1,0.30787638,0.38221252,0.13961035,0.085678905,inf,inf,inf,inf,1,1,1,1,2,0,2,1,3,1,1,1
63670487,26016546,34.0337013,108.7636997,0.5592988,5.5565796,0.10481905,-0.08098992,-0.3500504,0.0,-0.06691222,-0.049085367,0.023649434,-0.0569799,-0.1632025,-0.22137304,-0.13551536,-1.7875069,-0.6332977,-0.6003252,-2.4791307,-0.045761622,446.97424,0.1,0.2994051,0.38071385,0.1354574,0.084995545,inf,inf,inf,inf,1,1,1,1,2,0,2,1,3,1,1,1
63774703,26016546,34.0337013,108.7636997,0.5422936,5.547721,0.096325904,-0.08098992,-0.3500504,0.0,-0.06249513,-0.048309147,0.017371679,-0.06557484,-0.1632025,-0.22137304,-0.13551536,-0.79500985,0.89727074,-0.82532334,-2.478865,-0.045761622,446.97424,0.1,0.30812603,0.3817173,0.13994236,0.085665256,inf,inf,inf,inf,1,1,1,1,2,0,2,1,3,1,1,1
63874033,26016546,34.0337013,108.7636997,0.5272008,5.539333,0.08948196,-0.08098992,-0.3500504,0.0,-0.064675145,-0.049135305,0.0140948575,-0.06910777,-0.1632025,-0.22137304,-0.13551536,-1.0272745,0.62518907,-1.0763091,-2.4787052,-0.045761622,446.97424,0.1,0.2996449,0.38023445,0.13596016,0.08499393,inf,inf,inf,inf,1,1,1,1,2,0,2,1,3,1,1,1
63968404,26016546,34.0337013,108.7636997,0.51063097,5.53022,0.080832206,-0.08098992,-0.3500504,0.0,-0.05948161,-0.050272603,0.013796684,-0.071752176,-0.1632025,-0.22137304,-0.13551536,0.2905577,-0.20182888,-1.683917,-2.478392,-0.045761622,446.97424,0.1,0.30751103,0.38067862,0.1400033,0.085550785,inf,inf,inf,inf,1,1,1,1,2,0,2,1,3,1,1,1
64077675,26016546,34.0337013,108.7636997,0.49339738,5.519854,0.071655534,-0.08098992,-0.3500504,0.0,-0.06790729,-0.047069,0.018004673,-0.06845511,-0.1632025,-0.22137304,-0.13551536,0.9701679,1.2341168,0.0809497,-2.478733,-0.045761622,446.97424,0.1,0.2992985,0.37949166,0.13556294,0.08483749,inf,inf,inf,inf,1,1,1,1,2,0,2,1,3,1,1,1
64177026,26016546,34.0337013,108.7636997,0.47587696,5.5087395,0.06312963,-0.08098992,-0.3500504,0.0,-0.065834224,-0.04709736,0.015499355,-0.07159686,-0.1632025,-0.22137304,-0.13551536,1.6688367,-0.2557614,0.80742836,-2.4786348,-0.045761622,446.97424,0.1,0.3080342,0.38274142,0.14020656,0.085720114,inf,inf,inf,inf,1,1,1,1,2,0,2,1,3,1,1,1
64276350,26016546,34.0337013,108.7636997,0.45947677,5.498107,0.05508379,-0.08098992,-0.3500504,0.0,-0.05952677,-0.06289324,0.019963233,-0.06714483,-0.1632025,-0.22137304,-0.13551536,1.8146533,-2.8286698,1.4802544,-2.4776857,-0.045761622,446.97424,0.1,0.2996415,0.38125405,0.13622086,0.08505114,inf,inf,inf,inf,1,1,1,1,2,0,2,1,3,1,1,1
64375688,26016546,34.0337013,108.7636997,0.44112474,5.4869,0.04614814,-0.08098992,-0.3500504,0.0,-0.07425721,-0.057534616,0.0152781345,-0.07246412,-0.1632025,-0.22137304,-0.13551536,-1.6597135,-0.24530202,1.3416467,-2.4780347,-0.045761622,446.97424,0.1,0.3084335,0.38224894,0.14382327,0.085730284,inf,inf,inf,inf,1,1,1,1,2,0,2,1,3,1,1,1
64475237,26016546,34.0337013,108.7636997,0.42427164,5.476807,0.03908987,-0.08098992,-0.3500504,0.0,-0.073728085,-0.058287468,0.011316714,-0.07516362,-0.1632025,-0.22137304,-0.13551536,0.9134889,-1.1924099,0.7645942,-2.477357,-0.045761622,446.97424,0.107522264,0.29957655,0.38058212,0.14504032,0.08500002,inf,inf,inf,inf,1,1,1,1,2,0,2,1,3,1,1,1
64579331,26016546,34.0337013,108.7636997,0.40602452,5.4669476,0.03200304,-0.08098992,-0.3500504,0.0,-0.08391522,-0.062358744,0.01774491,-0.06770424,-0.1632025,-0.22137304,-0.13551536,-1.6829486,-1.5126121,2.3587084,-2.4785395,-0.045761622,446.97424,0.11460909,0.30840173,0.38154906,0.15940209,0.08571775,inf,inf,inf,inf,1,1,1,1,2,0,2,1,3,1,1,1
64668734,26016546,34.0337013,108.7636997,0.39169368,5.45839,0.026501229,-0.08098992,-0.3500504,0.0,-0.076071255,-0.05871734,0.009805728,-0.07390484,-0.1632025,-0.22137304,-0.13551536,1.2579157,1.749118,-1.3456799,-2.4777472,-0.045761622,446.97424,0.12011091,0.2986381,0.38159987,0.16084903,0.08511075,inf,inf,inf,inf,1,1,1,1,2,0,2,1,3,1,1,1
64778019,26016546,34.0337013,108.7636997,0.37241453,5.4460483,0.018839758,-0.08098992,-0.3500504,0.0,-0.07684188,-0.06636807,0.005647726,-0.076662965,-0.1632025,-0.22137304,-0.13551536,0.4064115,-0.26062444,-0.6035801,-2.47763,-0.045761622,446.97424,0.12777238,0.3084552,0.38313302,0.18057355,0.085989416,inf,inf,inf,inf,1,1,1,1,2,0,2,1,3,1,1,1
64877343,26016546,34.0337013,108.7636997,0.35702085,5.4354134,0.0128405215,-0.08098992,-0.3500504,0.0,-0.06792527,-0.059340753,0.0011792367,-0.0791372,-0.1632025,-0.22137304,-0.13551536,1.3018644,0.45444545,-0.6359711,-2.4765382,-0.045761622,446.97424,0.13377161,0.29940763,0.38143876,0.18105713,0.08526998,inf,inf,inf,inf,1,1,1,1,2,0,2,1,3,1,1,1
64976694,26016546,34.0337013,108.7636997,0.3412019,5.424663,0.006644138,-0.08098992,-0.3500504,0.0,-0.07014042,-0.06518581,0.0073644645,-0.071353525,-0.1632025,-0.22137304,-0.13551536,-1.2301979,-1.657435,0.20127852,-2.4771833,-0.045761622,446.97424,0.139968,0.30862835,0.3824023,0.20004214,0.086034104,inf,inf,inf,inf,1,1,1,1,2,0,2,1,3,1,1,1
65076031,26016546,34.0337013,108.7636997,0.3270174,5.415352,0.0019214428,-0.08098992,-0.3500504,0.0,-0.07301301,-0.061173353,0.011394192,-0.06439879,-0.1632025,-0.22137304,-0.13551536,-2.4374862,-0.119325124,0.7795106,-2.4765704,-0.045761622,446.97424,0.14469069,0.29889357,0.3804933,0.19432229,0.085167296,inf,inf,inf,inf,1,1,1,1,2,0,2,1,3,1,1,1
65175355,26016546,34.0337013,108.7636997,0.31145793,5.407965,-0.0014158373,-0.08098992,-0.3500504,0.0,-0.05408586,-0.047438335,0.008345707,-0.06345395,-0.1632025,-0.22137304,-0.13551536,0.7291075,0.13051715,1.2258763,-2.4772894,-0.045761622,446.97424,0.14802797,0.3083174,0.38144645,0.21284936,0.08593511,inf,inf,inf,inf,1,1,1,1,2,0,2,1,3,1,1,1
65274750,26016546,34.0337013,108.7636997,0.29754657,5.401193,-0.0038098574,-0.08098992,-0.3500504,0.0,-0.056177016,-0.05264888,0.013560989,-0.053939097,-0.1632025,-0.22137304,-0.13551536,-2.0578942,-1.1743251,1.9741769,-2.4775915,-0.045761622,446.97424,0.15042199,0.29898885,0.38202432,0.20433795,0.085370526,inf,inf,inf,inf,1,1,1,1,2,0,2,1,3,1,1,1
65374030,26016546,34.0337013,108.7636997,0.2816199,5.394357,-0.0053498503,-0.08098992,-0.3500504,0.0,-0.053101376,-0.04471723,0.004471513,-0.058362987,-0.1632025,-0.22137304,-0.13551536,0.9433751,0.55626553,-0.39918002,-2.476438,-0.045761622,446.97424,0.15196198,0.30878678,0.382989,0.2219071,0.08613897,inf,inf,inf,inf,1,1,1,1,2,0,2,1,3,1,1,1
65473368,26016546,34.0337013,108.7636997,0.2670153,5.3876157,-0.0062816907,-0.08098992,-0.3500504,0.0,-0.05534645,-0.042744707,0.008468435,-0.049679488,-0.1632025,-0.22137304,-0.13551536,-1.6158034,-0.3978561,0.65023214,-2.4773867,-0.045761622,446.97424,0.15289383,0.2986481,0.38107935,0.20782399,0.08520748,inf,inf,inf,inf,1,1,1,1,2,0,2,1,3,1,1,1
65572897,26016546,34.0337013,108.7636997,0.25269148,5.3793473,-0.0074575245,-0.08098992,-0.3500504,0.0,-0.042808287,-0.035761535,0.0046759485,-0.04958649,-0.1632025,-0.22137304,-0.13551536,0.21299842,0.102955475,0.7869935,-2.477763,-0.045761622,446.97424,0.15406966,0.30862707,0.3820343,0.2239525,0.08596927,inf,inf,inf,inf,1,1,1,1,2,0,2,1,3,1,1,1
65677032,26016546,34.0337013,108.7636997,0.24117744,5.372072,-0.0071516936,-0.08098992,-0.3500504,0.0,-0.028093465,-0.036115155,0.0009151792,-0.048645835,-0.1632025,-0.22137304,-0.13551536,0.8044401,0.52497137,-1.7509925,-2.4758093,-0.045761622,446.97424,0.15376383,0.29826233,0.3801374,0.20770082,0.0850214,inf,inf,inf,inf,1,1,1,1,2,0,2,1,3,1,1,1
65776348,26016546,34.0337013,108.7636997,0.22768341,5.3649273,-0.008492718,-0.08098992,-0.3500504,0.0,-0.020115096,-0.035745922,0.009364494,-0.037409484,-0.1632025,-0.22137304,-0.13551536,-0.27976778,-1.501314,1.0846639,-2.47685,-0.045761622,446.97424,0.15510486,0.3083535,0.38108924,0.22239874,0.08578395,inf,inf,inf,inf,1,1,1,1,2,0,2,1,3,1,1,1
65875685,26016546,34.0337013,108.7636997,0.21642242,5.3588195,-0.009198096,-0.08098992,-0.3500504,0.0,-0.024537802,-0.024227789,0.001193494,-0.042469185,-0.1632025,-0.22137304,-0.13551536,0.74662995,-0.19656365,0.17839676,-2.4764805,-0.045761622,446.97424,0.15581024,0.29795486,0.37921968,0.20561203,0.08484063,inf,inf,inf,inf,1,1,1,1,2,0,2,1,3,1,1,1
65975023,26016546,34.0337013,108.7636997,0.20186447,5.351252,-0.0104645,-0.08098992,-0.3500504,0.0,-0.020039225,-0.012074505,0.004835202,-0.036658593,-0.1632025,-0.22137304,-0.13551536,1.1172489,0.9715399,0.523861,-2.4759529,-0.045761622,446.97424,0.15707664,0.30812928,0.38242522,0.21891846,0.08580262,inf,inf,inf,inf,1,1,1,1,2,0,2,1,3,1,1,1
66074386,26016546,34.0337013,108.7636997,0.1875192,5.343919,-0.011569589,-0.08098992,-0.3500504,0.0,-0.030534174,-0.022786573,0.017743506,-0.021770226,-0.1632025,-0.22137304,-0.13551536,-2.4566305,-1.4926331,1.9228365,-2.4768991,-0.045761622,446.97424,0.15818173,0.2978215,0.3805515,0.20262232,0.08488384,inf,inf,inf,inf,1,1,1,1,2,0,2,1,3,1,1,1
66173701,26016546,34.0337013,108.7636997,0.16790842,5.334851,-0.011877326,-0.08098992,-0.3500504,0.0,-0.022818582,-0.019894797,0.012610865,-0.024234267,-0.1632025,-0.22137304,-0.13551536,-0.30751064,-0.51163465,0.059640717,-2.4768896,-0.045761622,446.97424,0.15848947,0.3080736,0.38150278,0.21473928,0.08563135,inf,inf,inf,inf,1,1,1,1,2,0,2,1,3,1,1,1
66273037,26016546,34.0337013,108.7636997,0.1503583,5.326102,-0.010011878,-0.08098992,-0.3500504,0.0,-0.026483122,-0.014313916,0.010557354,-0.021771751,-0.1632025,-0.22137304,-0.13551536,0.76325685,0.15566671,-0.17844455,-2.4764717,-0.045761622,446.97424,0.15662402,0.2977036,0.3796488,0.19884521,0.084712595,inf,inf,inf,inf,1,1,1,1,2,0,2,1,3,1,1,1
66372535,26016546,34.0337013,108.7636997,0.13030283,5.3154416,-0.00796581,-0.08098992,-0.3500504,0.0,-0.037085466,-0.016705357,0.015483208,-0.012783344,-0.1632025,-0.22137304,-0.13551536,-2.1345565,-2.3565924,2.7620754,-2.4767299,-0.045761622,446.97424,0.15457794,0.3079982,0.38059217,0.20991743,0.085453674,inf,inf,inf,inf,1,1,1,1,2,0,2,1,3,1,1,1
66471710,26016546,34.0337013,108.7636997,0.113551795,5.306552,-0.007087046,-0.08098992,-0.3500504,0.0,-0.022336086,-0.01420702,0.0027715575,-0.02320572,-0.1632025,-0.22137304,-0.13551536,1.9914134,0.449744,-0.49991888,-2.4767647,-0.045761622,446.97424,0.15369919,0.29751596,0.3787556,0.19440778,0.08454461,inf,inf,inf,inf,1,1,1,1,2,0,2,1,3,1,1,1
66571049,26016546,34.0337013,108.7636997,0.09376892,5.2978067,-0.0075503187,-0.08098992,-0.3500504,0.0,-0.036267623,-0.0047875955,0.010472532,-0.014898834,-0.1632025,-0.22137304,-0.13551536,-0.62682575,0.9693389,-0.521339,-2.476356,-0.045761622,446.97424,0.15416245,0.30779976,0.37969115,0.20455042,0.08528155,inf,inf,inf,inf,1,1,1,1,2,0,2,1,3,1,1,1
66675353,26016546,34.0337013,108.7636997,0.076045424,5.2908583,-0.007385604,-0.08098992,-0.3500504,0.0,-0.028167997,0.0004511855,0.006067339,-0.018116467,-0.1632025,-0.22137304,-0.13551536,0.8601067,0.44204,-0.2774102,-2.4784207,-0.045761622,446.97424,0.15399775,0.29736373,0.38009548,0.18990624,0.084578015,inf,inf,inf,inf,1,1,1,1,2,0,2,1,3,1,1,1
66774722,26016546,34.0337013,108.7636997,0.0571236,5.2827125,-0.008123076,-0.08098992,-0.3500504,0.0,-0.022429137,-0.004467321,0.007853981,-0.016240232,-0.1632025,-0.22137304,-0.13551536,0.10642754,2.3966327,-1.8777684,-2.4784122,-0.045761622,446.97424,0.15473521,0.30762038,0.38104647,0.19924633,0.085312776,inf,inf,inf,inf,1,1,1,1,2,0,2,1,3,1,1,1
66874080,26016546,34.0337013,108.7636997,0.039295726,5.275366,-0.007901447,-0.08098992,-0.3500504,0.0,-0.034806285,-0.008182427,0.018416451,-0.004447085,-0.1632025,-0.22137304,-0.13551536,-1.0560607,-1.4323425,1.7445116,-2.4787498,-0.045761622,446.97424,0.15451358,0.2984674,0.3796061,0.18822283,0.08464232,inf,inf,inf,inf,1,1,1,1,2,0,2,1,3,1,1,1
66973365,26016546,34.0337013,108.7636997,0.01896016,5.26643,-0.00854574,-0.08098992,-0.3500504,0.0,-0.022553837,-0.006762753,0.014496898,-0.007938031,-0.1632025,-0.22137304,-0.13551536,1.2767274,0.12311762,0.35091013,-2.4787726,-0.045761622,446.97424,0.15515788,0.30895063,0.3805648,0.19697762,0.08536064,inf,inf,inf,inf,1,1,1,1,2,0,2,1,3,1,1,1
67072701,26016546,34.0337013,108.7636997,0.00161587,5.2585287,-0.009026081,-0.08098992,-0.3500504,0.0,-0.033322886,-0.00699268,0.011233365,-0.010767512,-0.1632025,-0.22137304,-0.13551536,-1.4136972,-1.8902466,0.5523229,-2.4785783,-0.045761622,446.97424,0.15563822,0.2993732,0.37911475,0.18564145,0.08467044,inf,inf,inf,inf,1,1,1,1,2,0,2,1,3,1,1,1
67172168,26016546,34.0337013,108.7636997,-0.022557544,5.2486167,-0.012183945,-0.08098992,-0.3500504,0.0,-0.044194784,0.0076496373,0.009136606,-0.014520035,-0.1632025,-0.22137304,-0.13551536,-0.6895282,-0.12188155,0.8416739,-2.4789574,-0.045761622,446.97424,0.15879609,0.3099815,0.38006628,0.19384658,0.08537597,inf,inf,inf,inf,1,1,1,1,2,0,2,1,3,1,1,1
67276344,26016546,34.0337013,108.7636997,-0.04368812,5.2428403,-0.015123515,-0.08098992,-0.3500504,0.0,-0.05412633,0.033705734,-0.005050455,-0.029247547,-0.1632025,-0.22137304,-0.13551536,-1.4031357,-1.7186015,0.75844,-2.479623,-0.045761622,446.97424,0.16173565,0.29905677,0.37823734,0.18047023,0.0844666,inf,inf,inf,inf,1,1,1,1,2,0,2,1,3,1,1,1
67375684,26016546,34.0337013,108.7636997,-0.06766471,5.2392387,-0.017271506,-0.08098992,-0.3500504,0.0,-0.07142475,0.046266373,-0.015999554,-0.039124604,-0.1632025,-0.22137304,-0.13551536,-0.101235494,0.24609898,-0.2139064,-2.4797761,-0.045761622,446.97424,0.16388364,0.30951753,0.37918636,0.18809511,0.08518289,inf,inf,inf,inf,1,1,1,1,2,0,2,1,3,1,1,1
67475019,26016546,34.0337013,108.7636997,-0.09167369,5.2400584,-0.020744871,-0.08098992,-0.3500504,0.0,-0.09110412,0.07256469,-0.018684685,-0.041235726,-0.1632025,-0.22137304,-0.13551536,-0.08136207,-0.5239477,0.7344297,-2.4809372,-0.045761622,446.97424,0.16735701,0.29887548,0.3796037,0.17592694,0.084491946,inf,inf,inf,inf,1,1,1,1,2,0,2,1,3,1,1,1
67574364,26016546,34.0337013,108.7636997,-0.11982333,5.2434797,-0.023813615,-0.08098992,-0.3500504,0.0,-0.087531015,0.07912818,-0.014833642,-0.036310934,-0.1632025,-0.22137304,-0.13551536,-0.79810464,-0.8574669,0.50919664,-2.4846187,-0.045761622,446.97424,0.17042576,0.30922052,0.38056797,0.18307954,0.08517858,inf,inf,inf,inf,1,1,1,1,2,0,2,1,3,1,1,1
67673706,26016546,34.0337013,108.7636997,-0.1425605,5.2461123,-0.025315007,-0.08098992,-0.3500504,0.0,-0.06065245,0.03502912,0.009962928,-0.010531631,-0.1632025,-0.22137304,-0.13551536,1.5846993,-0.83134615,1.552587,-2.5089734,-0.045761622,446.97424,0.17192714,0.29857907,0.3787565,0.17158261,0.08425512,inf,inf,inf,inf,1,1,1,1,2,0,2,1,3,1,1,1
67778001,26016546,34.0337013,108.7636997,-0.1659718,5.2443414,-0.022416323,-0.08098992,-0.3500504,0.0,-0.027944172,0.027493017,0.0549734,0.035092074,-0.1632025,-0.22137304,-0.13551536,1.3113391,0.14087395,-0.58922833,-2.5451338,-0.045761622,446.97424,0.16902846,0.30879107,0.3797047,0.17831051,0.08486676,inf,inf,inf,inf,1,1,1,1,2,0,2,1,3,1,1,1
67867403,26016546,34.0337013,108.7636997,-0.18112774,5.242076,-0.018551527,-0.08098992,-0.3500504,0.0,-0.019555077,0.008779348,0.042276017,0.023593457,-0.1632025,-0.22137304,-0.13551536,0.92283094,-0.9167708,-0.22475375,-2.5775495,-0.045761622,446.97424,0.16516367,0.29734704,0.37737712,0.16696444,0.083815254,inf,inf,inf,inf,1,1,1,1,2,0,2,1,3,1,1,1
67976790,26016546,34.0337013,108.7636997,-0.20342866,5.2309456,-0.01589432,-0.08098992,-0.3500504,0.0,0.00074593246,-0.018104032,0.018789094,0.0020079461,-0.1632025,-0.22137304,-0.13551536,0.2784672,0.19111092,-0.31704867,-2.6000795,-0.045761622,446.97424,0.16250646,0.30839428,0.37885422,0.17395389,0.08456111,inf,inf,inf,inf,1,1,1,1,2,0,2,1,3,1,1,1
68076012,26016546,34.0337013,108.7636997,-0.21904002,5.2236457,-0.01591485,-0.08098992,-0.3500504,0.0,-0.009440072,0.012155059,0.011964337,-0.004472205,-0.1632025,-0.22137304,-0.13551536,-0.2877924,-1.7419765,0.24342395,-2.589723,-0.045761622,446.97424,0.162527,0.2980549,0.3770779,0.16391315,0.08371468,inf,inf,inf,inf,1,1,1,1,2,0,2,1,3,1,1,1
68175351,26016546,34.0337013,108.7636997,-0.23714793,5.217304,-0.018701114,-0.08098992,-0.3500504,0.0,-0.021413265,0.04014861,0.00090625935,-0.016545096,-0.1632025,-0.22137304,-0.13551536,-0.8436315,-0.2952097,1.4524274,-2.5586274,-0.045761622,446.97424,0.16531324,0.30802134,0.38024336,0.16992913,0.084623605,inf,inf,inf,inf,1,1,1,1,2,0,2,1,3,1,1,1
68274687,26016546,34.0337013,108.7636997,-0.2530046,5.2146463,-0.01999045,-0.08098992,-0.3500504,0.0,-0.027678046,0.047632873,-0.006800127,-0.023403475,-0.1632025,-0.22137304,-0.13551536,-1.0204747,2.1165066,-0.30377477,-2.5213401,-0.045761622,446.97424,0.16660258,0.2978445,0.37845874,0.16050752,0.08381532,inf,inf,inf,inf,1,1,1,1,2,0,2,1,3,1,1,1
68374027,26016546,34.0337013,108.7636997,-0.27306098,5.2118964,-0.020571062,-0.08098992,-0.3500504,0.0,-0.033274565,0.02290675,0.007964829,-0.008020813,-0.1632025,-0.22137304,-0.13551536,-0.16061373,0.65872055,0.80313164,-2.4917154,-0.045761622,446.97424,0.1671832,0.30769712,0.37941033,0.16627587,0.08452698,inf,inf,inf,inf,1,1,1,1,2,0,2,1,3,1,1,1
68473363,26016546,34.0337013,108.7636997,-0.28833923,5.208866,-0.019280387,-0.08098992,-0.3500504,0.0,-0.021225378,0.008455881,0.0141040115,-0.0005654562,-0.1632025,-0.22137304,-0.13551536,-0.6023855,-1.3107169,1.2995667,-2.4782157,-0.045761622,446.97424,0.16589253,0.2975455,0.37764087,0.15729752,0.08368718,inf,inf,inf,inf,1,1,1,1,2,0,2,1,3,1,1,1
68572700,26016546,34.0337013,108.7636997,-0.3073467,5.204941,-0.021149253,-0.08098992,-0.3500504,0.0,-0.004414462,0.009173051,0.027528161,0.010662549,-0.1632025,-0.22137304,-0.13551536,-0.85078514,-0.8665372,1.186329,-2.4778755,-0.045761622,446.97424,0.16776139,0.3072759,0.3785848,0.16283597,0.084350884,inf,inf,inf,inf,1,1,1,1,2,0,2,1,3,1,1,1
68672039,26016546,34.0337013,108.7636997,-0.32064006,5.202508,-0.021785336,-0.08098992,-0.3500504,0.0,-0.0009310562,0.0072345193,0.017264599,-0.0007463614,-0.1632025,-0.22137304,-0.13551536,-1.5307641,0.8676576,1.5060475,-2.4791868,-0.045761622,446.97424,0.16839747,0.29735422,0.37683368,0.15448254,0.08350754,inf,inf,inf,inf,1,1,1,1,2,0,2,1,3,1,1,1
68771489,26016546,34.0337013,108.7636997,-0.3347641,5.1996436,-0.023338271,-0.08098992,-0.3500504,0.0,-0.019712174,0.016081806,0.008264731,-0.010960487,-0.1632025,-0.22137304,-0.13551536,1.0354785,0.9502543,-1.408647,-2.470758,-0.045761622,446.97424,0.16995041,0.30698177,0.37776333,0.159813,0.08417164,inf,inf,inf,inf,1,1,1,1,2,0,2,1,3,1,1,1
68870713,26016546,34.0337013,108.7636997,-0.3497984,5.1995673,-0.025202733,-0.08098992,-0.3500504,0.0,-0.054708317,0.061802603,-0.0052077677,-0.02484348,-0.1632025,-0.22137304,-0.13551536,0.61648405,-1.3954297,0.17826341,-2.4454029,-0.045761622,446.97424,0.17181487,0.29713708,0.37822324,0.15187554,0.08355517,inf,inf,inf,inf,1,1,1,1,2,0,2,1,3,1,1,1
68970050,26016546,34.0337013,108.7636997,-0.36968908,5.202378,-0.026869161,-0.08098992,-0.3500504,0.0,-0.049293,0.111191854,-0.011445133,-0.029463122,-0.1632025,-0.22137304,-0.13551536,0.4764262,1.3111413,0.7739272,-2.4254074,-0.045761622,446.97424,0.1734813,0.3066651,0.37916872,0.15703064,0.08425627,inf,inf,inf,inf,1,1,1,1,2,0,2,1,3,1,1,1
69069393,26016546,34.0337013,108.7636997,-0.38794655,5.210527,-0.02889559,-0.08098992,-0.3500504,0.0,-0.065170065,0.1482094,-0.01682585,-0.033217374,-0.1632025,-0.22137304,-0.13551536,-0.22211303,2.5247405,0.7497139,-2.4165413,-0.045761622,446.97424,0.17550772,0.2969231,0.37741834,0.14948134,0.083456576,inf,inf,inf,inf,1,1,1,1,2,0,2,1,3,1,1,1
69178659,26016546,34.0337013,108.7636997,-0.4153968,5.2271137,-0.031851448,-0.08098992,-0.3500504,0.0,-0.08335516,0.22711444,-0.03693291,-0.052131303,-0.1632025,-0.22137304,-0.13551536,0.14348891,0.4662926,-0.23240447,-2.4112492,-0.045761622,446.97424,0.17846358,0.30733415,0.37889615,0.15498237,0.08423232,inf,inf,inf,inf,1,1,1,1,2,0,2,1,3,1,1,1
69268063,26016546,34.0337013,108.7636997,-0.4349628,5.2466555,-0.036264732,-0.08098992,-0.3500504,0.0,-0.07602631,0.26244232,-0.0662411,-0.08027946,-0.1632025,-0.22137304,-0.13551536,-0.66575104,0.8437866,-1.1874928,-2.4141197,-0.045761622,446.97424,0.18287687,0.2966859,0.3766293,0.14727014,0.08330649,inf,inf,inf,inf,1,1,1,1,2,0,2,1,3,1,1,0
69372367,26016546,34.0337013,108.7636997,-0.46048993,5.2723284,-0.045630172,-0.08098992,-0.3500504,0.0,-0.108015075,0.28395572,-0.093150996,-0.10618287,-0.1632025,-0.22137304,-0.13551536,0.5652353,-1.2766299,0.8446305,-2.4213016,-0.045761622,446.97424,0.19224231,0.3060245,0.37756157,0.15216164,0.083982855,inf,inf,inf,inf,1,1,1,1,2,0,2,1,3,1,1,0
69471706,26016546,34.0337013,108.7636997,-0.4824901,5.298045,-0.057529185,-0.08098992,-0.3500504,0.0,-0.09628743,0.2832189,-0.13488294,-0.1471933,-0.1632025,-0.22137304,-0.13551536,1.1507915,-2.2068174,-1.9895376,-2.430839,-0.045761622,446.97424,0.20414132,0.29636458,0.3758397,0.14520207,0.08318622,inf,inf,inf,inf,1,1,1,1,2,0,2,1,3,1,1,0
69571081,26016546,34.0337013,108.7636997,-0.5077374,5.3191957,-0.07515796,-0.08098992,-0.3500504,0.0,-0.10835614,0.27910578,-0.15993379,-0.17411675,-0.1632025,-0.22137304,-0.13551536,-0.82303745,0.21543545,-0.8482558,-2.4420133,-0.045761622,446.97424,0.22177011,0.30560544,0.3767724,0.15002324,0.08388257,inf,inf,inf,inf,1,1,1,1,2,0,2,1,3,1,1,0
69675347,26016546,34.0337013,108.7636997,-0.53164285,5.340583,-0.09544899,-0.08098992,-0.3500504,0.0,-0.118420154,0.25235623,-0.20924686,-0.2232858,-0.1632025,-0.22137304,-0.13551536,0.17925912,0.57059455,-1.5467292,-2.4521158,-0.045761622,446.97424,0.24206114,0.2961412,0.3772517,0.14345764,0.08329677,inf,inf,inf,inf,1,1,1,1,2,0,2,1,3,1,1,0
69774684,26016546,34.0337013,108.7636997,-0.5585636,5.355211,-0.11654979,-0.08098992,-0.3500504,0.0,-0.1405316,0.2136832,-0.21442011,-0.22748685,-0.1632025,-0.22137304,-0.13551536,-1.7538376,-0.38654488,0.28995672,-2.4623525,-0.045761622,446.97424,0.26316193,0.3052991,0.37819582,0.148157,0.08399247,inf,inf,inf,inf,1,1,1,1,2,0,2,1,3,1,1,0
69874222,26016546,34.0337013,108.7636997,-0.5851984,5.366477,-0.13909645,-0.08098992,-0.3500504,0.0,-0.15417536,0.17293824,-0.22243942,-0.23442739,-0.1632025,-0.22137304,-0.13551536,0.13901684,-2.5059178,1.0973974,-2.4711945,-0.045761622,446.97424,0.2857086,0.296003,0.37648904,0.14198063,0.08321903,inf,inf,inf,inf,1,1,1,1,2,0,2,1,3,1,1,0
69973400,26016546,34.0337013,108.7636997,-0.6154932,5.3699317,-0.16189742,-0.08098992,-0.3500504,0.0,-0.17130345,0.1284005,-0.23360646,-0.24451451,-0.1632025,-0.22137304,-0.13551536,1.2905657,-0.6008151,-1.1663469,-2.478773,-0.045761622,446.97424,0.30850956,0.30509192,0.3774349,0.14659417,0.083902255,inf,inf,inf,inf,1,1,1,1,2,0,2,1,3,1,1,0
70072697,26016546,34.0337013,108.7636997,-0.645147,5.371221,-0.18340033,-0.08098992,-0.3500504,0.0,-0.20368089,0.06986881,-0.21503744,-0.22483343,-0.1632025,-0.22137304,-0.13551536,-1.6118896,1.684555,-0.515321,-2.487009,-0.045761622,446.97424,0.33001247,0.29577774,0.37574,0.14048205,0.08311508,inf,inf,inf,inf,1,1,1,1,2,0,2,1,3,1,1,0
70177002,26016546,34.0337013,108.7636997,-0.6800796,5.3716164,-0.2088214,-0.08098992,-0.3500504,0.0,-0.21436407,0.008031402,-0.20394519,-0.21571095,-0.1632025,-0.22137304,-0.13551536,-1.0006019,-0.03256921,1.7293261,-2.4931972,-0.045761622,446.97424,0.35543352,0.30478767,0.37668028,0.14502516,0.083799005,inf,inf,inf,inf,1,1,1,1,2,0,2,1,3,1,1,0
70276339,26016546,34.0337013,108.7636997,-0.7133568,5.364508,-0.23051415,-0.08098992,-0.3500504,0.0,-0.2234953,-0.08537074,-0.20282172,-0.21459398,-0.1632025,-0.22137304,-0.13551536,0.6464522,-3.986047,-0.08464953,-2.4971635,-0.045761622,446.97424,0.37712628,0.29563528,0.37500015,0.139195,0.083033174,inf,inf,inf,inf,1,1,1,1,2,0,2,1,3,1,1,0
70375696,26016546,34.0337013,108.7636997,-0.749717,5.3487134,-0.249249,-0.08098992,-0.3500504,0.0,-0.2030878,-0.16643289,-0.19882572,-0.20839989,-0.1632025,-0.22137304,-0.13551536,2.2967901,-0.022448888,-1.7837877,-2.5001812,-0.045761622,446.97424,0.39586115,0.3045794,0.3759416,0.14374498,0.08371129,inf,inf,inf,inf,1,1,1,1,2,0,2,1,3,1,1,0
70475015,26016546,34.0337013,108.7636997,-0.77911514,5.323725,-0.26707262,-0.08098992,-0.3500504,0.0,-0.18326084,-0.25870264,-0.18508816,-0.19265969,-0.1632025,-0.22137304,-0.13551536,2.1430995,-1.9891363,-1.2841957,-2.5012968,-0.045761622,446.97424,0.41368476,0.29703012,0.3771246,0.13995254,0.08350775,inf,inf,inf,inf,1,1,1,1,2,0,2,1,3,1,1,0
70574353,26016546,34.0337013,108.7636997,-0.80457777,5.288703,-0.28279287,-0.08098992,-0.3500504,0.0,-0.15437932,-0.34495622,-0.15081804,-0.15714426,-0.1632025,-0.22137304,-0.13551536,0.122025095,1.7236232,-1.3367527,-2.5017662,-0.045761622,446.97424,0.429405,0.30610126,0.3780907,0.1444554,0.08418592,inf,inf,inf,inf,1,1,1,1,2,0,2,1,3,1,1,0
70673850,26016546,34.0337013,108.7636997,-0.82478505,5.2480555,-0.29545197,-0.08098992,-0.3500504,0.0,-0.119754285,-0.3985947,-0.12102782,-0.1262131,-0.1632025,-0.22137304,-0.13551536,1.5735561,-1.3594406,-0.22081536,-2.500126,-0.045761622,446.97424,0.4420641,0.29673043,0.37638816,0.13853194,0.08340617,inf,inf,inf,inf,1,1,1,1,2,0,2,1,3,1,1,0
70773027,26016546,34.0337013,108.7636997,-0.8439838,5.2047787,-0.30470803,-0.08098992,-0.3500504,0.0,-0.11782596,-0.42397147,-0.07639742,-0.08034657,-0.1632025,-0.22137304,-0.13551536,-1.8141675,1.9382685,1.2155417,-2.4981124,-0.045761622,446.97424,0.45132017,0.30570534,0.37734744,0.14294004,0.08410638,inf,inf,inf,inf,1,1,1,1,2,0,2,1,3,1,1,0
70872365,26016546,34.0337013,108.7636997,-0.86114556,5.1633077,-0.30879286,-0.08098992,-0.3500504,0.0,-0.11213492,-0.4269671,-0.035594866,-0.037642807,-0.1632025,-0.22137304,-0.13551536,0.11631595,-0.885714,0.27276576,-2.4966624,-0.045761622,446.97424,0.455405,0.29648796,0.37565142,0.13723798,0.08332378,inf,inf,inf,inf,1,1,1,1,2,0,2,1,3,1,1,0
70971702,26016546,34.0337013,108.7636997,-0.87787634,5.1278563,-0.30966586,-0.08098992,-0.3500504,0.0,-0.10974552,-0.38015693,-0.023270205,-0.023537805,-0.1632025,-0.22137304,-0.13551536,1.4509177,1.856173,-0.9594481,-2.4971225,-0.045761622,446.97424,0.456278,0.30537546,0.37660414,0.14155304,0.084011786,inf,inf,inf,inf,1,1,1,1,2,0,2,1,3,1,1,0
71071039,26016546,34.0337013,108.7636997,-0.8968877,5.0991282,-0.3106293,-0.08098992,-0.3500504,0.0,-0.13673396,-0.3157424,-0.019405013,-0.018493187,-0.1632025,-0.22137304,-0.13551536,-1.4588822,-0.395875,1.1975622,-2.4980748,-0.045761622,446.97424,0.45724145,0.29621542,0.37709686,0.1360265,0.08337916,inf,inf,inf,inf,1,1,1,1,2,0,2,1,3,1,1,0
71170377,26016546,34.0337013,108.7636997,-0.9267171,5.078009,-0.31199855,-0.08098992,-0.3500504,0.0,-0.15488002,-0.251415,-0.02223158,-0.020842511,-0.1632025,-0.22137304,-0.13551536,2.1619978,-0.36117542,-1.3291512,-2.4967465,-0.045761622,446.97424,0.45861068,0.30502278,0.37805825,0.14034723,0.08406191,inf,inf,inf,inf,1,1,1,1,2,0,2,1,3,1,1,0
71269712,26016546,34.0337013,108.7636997,-0.95405424,5.0642796,-0.312588,-0.08098992,-0.3500504,0.0,-0.1722153,-0.1670377,-0.028720716,-0.026111186,-0.1632025,-0.22137304,-0.13551536,-0.47789365,2.5551631,-1.0616702,-2.496613,-0.045761622,446.97424,0.45920014,0.2959445,0.37635154,0.13503677,0.08325344,inf,inf,inf,inf,1,1,1,1,2,0,2,1,3,1,1,0
71369052,26016546,34.0337013,108.7636997,-0.98091733,5.0602555,-0.3124489,-0.08098992,-0.3500504,0.0,-0.20778827,-0.10188095,-0.033939343,-0.028360171,-0.1632025,-0.22137304,-0.13551536,-0.42668813,2.0047748,1.6844746,-2.4942915,-0.045761622,446.97424,0.45906103,0.30468008,0.37729385,0.13937946,0.08393477,inf,inf,inf,inf,1,1,1,1,2,0,2,1,3,1,1,0
71468484,26016546,34.0337013,108.7636997,-1.0083392,5.0607977,-0.3133744,-0.08098992,-0.3500504,0.0,-0.22888868,-0.03407654,-0.053479362,-0.045050416,-0.1632025,-0.22137304,-0.13551536,-1.7466537,1.70359,1.3646276,-2.492754,-0.045761622,446.97424,0.45998654,0.29560053,0.3755923,0.13418342,0.083140455,inf,inf,inf,inf,1,1,1,1,2,0,2,1,3,1,1,0
71572694,26016546,34.0337013,108.7636997,-1.0423821,5.0679846,-0.31917363,-0.08098992,-0.3500504,0.0,-0.25674447,0.028337575,-0.11155821,-0.10133314,-0.1632025,-0.22137304,-0.13551536,0.7050093,-1.5704904,-0.96341115,-2.4927979,-0.045761622,446.97424,0.46578577,0.3042625,0.37872615,0.138548,0.08402262,inf,inf,inf,inf,1,1,1,1,2,0,2,1,3,1,1,0
71672032,26016546,34.0337013,108.7636997,-1.0761319,5.07984,-0.3313406,-0.08098992,-0.3500504,0.0,-0.29232657,0.09730798,-0.17068772,-0.16010186,-0.1632025,-0.22137304,-0.13551536,-1.4391252,-1.2738248,0.46451512,-2.4941144,-0.045761622,446.97424,0.47795275,0.29565752,0.37717405,0.1341134,0.0833198,inf,inf,inf,inf,1,1,1,1,2,0,2,1,3,1,1,0
71776337,26016546,34.0337013,108.7636997,-1.1170168,5.0950522,-0.35524997,-0.08098992,-0.3500504,0.0,-0.31392768,0.1547482,-0.25684127,-0.2489217,-0.1632025,-0.22137304,-0.13551536,1.0619327,1.8513564,-0.99221027,-2.4950147,-0.045761622,446.97424,0.5018621,0.3043016,0.37813014,0.138628,0.084009506,inf,inf,inf,inf,1,1,1,1,2,0,2,1,3,1,1,0
71875674,26016546,34.0337013,108.7636997,-1.1559188,5.1137223,-0.38403568,-0.08098992,-0.3500504,0.0,-0.32195795,0.19006352,-0.3148982,-0.30809566,-0.1632025,-0.22137304,-0.13551536,-0.6993862,0.5146853,1.4555527,-2.4959989,-0.045761622,446.97424,0.5306478,0.29533562,0.3764247,0.13376692,0.08323253,inf,inf,inf,inf,1,1,1,1,2,0,2,1,3,1,1,0
71975019,26016546,34.0337013,108.7636997,-1.1980387,5.1326923,-0.4173004,-0.08098992,-0.3500504,0.0,-0.30776286,0.18771742,-0.37825793,-0.37114158,-0.1632025,-0.22137304,-0.13551536,-1.4997994,0.5047508,0.35867092,-2.497231,-0.045761622,446.97424,0.5639125,0.3039226,0.3773814,0.13853106,0.08393136,inf,inf,inf,inf,1,1,1,1,2,0,2,1,3,1,1,0
72074349,26016546,34.0337013,108.7636997,-1.2358496,5.1508393,-0.45690563,-0.08098992,-0.3500504,0.0,-0.27646285,0.1759067,-0.44685876,-0.43959436,-0.1632025,-0.22137304,-0.13551536,0.15086626,0.8850517,-2.4604695,-2.4962447,-0.045761622,446.97424,0.6035178,0.29702565,0.37651306,0.13592821,0.083581634,inf,inf,inf,inf,1,1,1,1,2,0,2,1,3,1,1,0
72173686,26016546,34.0337013,108.7636997,-1.2709547,5.165796,-0.5048909,-0.08098992,-0.3500504,0.0,-0.21421671,0.11325872,-0.5042265,-0.49892047,-0.1632025,-0.22137304,-0.13551536,0.20247394,-2.7065015,-0.15575361,-2.494536,-0.045761622,446.97424,0.6515031,0.3057933,0.3774801,0.14057954,0.08425869,inf,inf,inf,inf,1,1,1,1,2,0,2,1,3,1,1,0
72273119,26016546,34.0337013,108.7636997,-1.298715,5.1750636,-0.559169,-0.08098992,-0.3500504,0.0,-0.16137642,0.058698986,-0.5533831,-0.55022043,-0.1632025,-0.22137304,-0.13551536,-0.6838133,-2.210558,0.75156724,-2.4913852,-0.045761622,446.97424,0.7057811,0.2984474,0.37648284,0.13745008,0.08385014,inf,inf,inf,inf,1,1,1,1,2,0,2,1,3,1,1,0
72372362,26016546,34.0337013,108.7636997,-1.3239906,5.176968,-0.61945593,-0.08098992,-0.3500504,0.0,-0.104983315,0.00600118,-0.6000558,-0.60012376,-0.1632025,-0.22137304,-0.13551536,0.59101725,-1.2226787,-0.3284445,-2.48786,-0.045761622,446.97424,0.7660681,0.3073506,0.3774565,0.14210895,0.084515035,inf,inf,inf,inf,1,1,1,1,2,0,2,1,3,1,1,0
72471702,26016546,34.0337013,108.7636997,-1.3402944,5.1727705,-0.68274343,-0.08098992,-0.3500504,0.0,-0.053787123,-0.04558923,-0.633988,-0.63611877,-0.1632025,-0.22137304,-0.13551536,0.3130982,-0.16312602,-0.7758417,-2.483486,-0.045761622,446.97424,0.8293556,0.30049726,0.37894264,0.13948646,0.08443052,inf,inf,inf,inf,1,1,1,1,2,0,2,1,3,1,1,0
72576005,26016546,34.0337013,108.7636997,-1.3493416,5.1560726,-0.75329363,-0.08098992,-0.3500504,0.0,-0.00293657,-0.097785175,-0.66672033,-0.67124873,-0.1632025,-0.22137304,-0.13551536,1.9531555,-2.4427862,0.7373202,-2.4780147,-0.045761622,446.97424,0.8999058,0.30959913,0.3799431,0.14418367,0.08508109,inf,inf,inf,inf,1,1,1,1,2,0,2,1,3,1,1,0
72675336,26016546,34.0337013,108.7636997,-1.3558902,5.136488,-0.82372314,-0.08098992,-0.3500504,0.0,0.02367769,-0.12953976,-0.7022669,-0.7086694,-0.1632025,-0.22137304,-0.13551536,1.1039734,-2.8105936,0.52273506,-2.4732902,-0.045761622,446.97424,0.97033525,0.30349863,0.3795423,0.14234804,0.08495583,inf,inf,inf,inf,1,1,1,1,2,0,2,1,3,1,1,0
72774679,26016546,34.0337013,108.7636997,-1.3713577,5.111755,-0.9014705,-0.08098992,-0.3500504,0.0,0.022219561,-0.13921839,-0.737864,-0.7494398,-0.1632025,-0.22137304,-0.13551536,0.11464905,-1.7420706,0.5583434,-2.4687464,-0.045761622,446.97424,1.0480826,0.31289566,0.38055617,0.1472682,0.085597515,inf,inf,inf,inf,1,1,1,1,2,0,2,1,3,1,1,0
72874018,26016546,34.0337013,108.7636997,-1.3845774,5.0897717,-0.9819043,-0.08098992,-0.3500504,0.0,0.013163508,-0.1289873,-0.7647837,-0.78043425,-0.1632025,-0.22137304,-0.13551536,0.19873783,-1.2406731,0.25011003,-2.4639974,-0.045761622,446.97424,1.1285164,0.30578902,0.3798601,0.14427654,0.08531029,inf,inf,inf,inf,1,1,1,1,2,0,2,1,3,1,1,0
72973365,26016546,34.0337013,108.7636997,-1.4011674,5.068789,-1.0661858,-0.08098992,-0.3500504,0.0,-0.010852637,-0.10757057,-0.76073056,-0.78262526,-0.1632025,-0.22137304,-0.13551536,-1.529551,1.1238544,-0.3423214,-2.460447,-0.045761622,446.97424,1.212798,0.3153779,0.38088638,0.14903446,0.085958734,inf,inf,inf,inf,1,1,1,1,2,0,2,1,3,1,1,0
73072745,26016546,34.0337013,108.7636997,-1.415967,5.0548296,-1.1459937,-0.08098992,-0.3500504,0.0,-0.047514148,-0.06693543,-0.72830653,-0.7532752,-0.1632025,-0.22137304,-0.13551536,-2.4996011,1.371315,1.7504468,-2.457006,-0.045761622,446.97424,1.2926059,0.30769992,0.38003066,0.14533767,0.08554806,inf,inf,inf,inf,1,1,1,1,2,0,2,1,3,1,1,0
73172039,26016546,34.0337013,108.7636997,-1.4303325,5.0519333,-1.21993,-0.08098992,-0.3500504,0.0,-0.07678966,-0.019295663,-0.70999604,-0.7346044,-0.1632025,-0.22137304,-0.13551536,-0.66050476,1.6015211,-1.6487352,-2.4537826,-0.045761622,446.97424,1.3665422,0.31741366,0.38333532,0.14987941,0.086384974,inf,inf,inf,inf,1,1,1,1,2,0,2,1,3,1,1,0
73271366,26016546,34.0337013,108.7636997,-1.4435894,5.0548263,-1.2887919,-0.08098992,-0.3500504,0.0,-0.113001734,0.025330579,-0.67073464,-0.6929449,-0.1632025,-0.22137304,-0.13551536,-1.6381724,-0.099704765,2.0947301,-2.4525757,-0.045761622,446.97424,1.4354041,0.30900574,0.38225377,0.14526665,0.085854955,inf,inf,inf,inf,1,1,1,1,2,0,2,1,3,1,1,0
73370895,26016546,34.0337013,108.7636997,-1.4518539,5.0683312,-1.3530986,-0.08098992,-0.3500504,0.0,-0.14009383,0.08226435,-0.65324134,-0.6713314,-0.1632025,-0.22137304,-0.13551536,-0.03893962,1.0070951,-0.84759986,-2.451135,-0.045761622,446.97424,1.4997108,0.3187579,0.3832923,0.14978386,0.08646877,inf,inf,inf,inf,1,1,1,1,2,0,2,1,3,1,1,0
73475008,26016546,34.0337013,108.7636997,-1.4625263,5.0871153,-1.4160476,-0.08098992,-0.3500504,0.0,-0.16182794,0.13381827,-0.62299454,-0.6357389,-0.1632025,-0.22137304,-0.13551536,1.0894161,1.7952813,-0.3030179,-2.4479258,-0.045761622,446.97424,1.5626597,0.3081914,0.3814529,0.14296922,0.0855425,inf,inf,inf,inf,1,1,1,1,2,0,2,1,3,1,1,0
73574346,26016546,34.0337013,108.7636997,-1.4646106,5.1215825,-1.4628359,-0.08098992,-0.3500504,0.0,-0.16491646,0.16763915,-0.51072806,-0.512567,-0.1632025,-0.22137304,-0.13551536,-0.626852,1.1701175,1.4477241,-2.4501023,-0.045761622,446.97424,1.6094481,0.31774256,0.38247752,0.14766976,0.08616287,inf,inf,inf,inf,1,1,1,1,2,0,2,1,3,1,1,0
73678650,26016546,34.0337013,108.7636997,-1.4731873,5.157165,-1.5018467,-0.08098992,-0.3500504,0.0,-0.1875238,0.2042969,-0.36855125,-0.36364606,-0.1632025,-0.22137304,-0.13551536,-1.9143248,1.4211307,1.707936,-2.4551299,-0.045761622,446.97424,1.6484588,0.30953497,0.38142672,0.14344487,0.08566552,inf,inf,inf,inf,1,1,1,1,2,0,2,1,3,1,1,0
73768055,26016546,34.0337013,108.7636997,-1.4887915,5.1925664,-1.5264515,-0.08098992,-0.3500504,0.0,-0.18231486,0.2182672,-0.24423005,-0.23717251,-0.1632025,-0.22137304,-0.13551536,-0.22192049,0.872024,1.2946084,-2.4593058,-0.045761622,446.97424,1.6730636,0.3181578,0.38417056,0.147116,0.08636497,inf,inf,inf,inf,1,1,1,1,2,0,2,1,3,1,1,0
73877435,26016546,34.0337013,108.7636997,-1.5083139,5.2321568,-1.5431542,-0.08098992,-0.3500504,0.0,-0.17852962,0.21970385,-0.07998716,-0.07295414,-0.1632025,-0.22137304,-0.13551536,-0.10589951,-0.47464204,2.4780507,-2.4558299,0.010261929,446.97424,1.6897664,0.31168625,0.38395232,0.14083591,0.08603048,inf,inf,inf,inf,1,1,1,1,2,0,2,1,4,1,1,0
73976663,26016546,34.0337013,108.7636997,-1.528124,5.2651415,-1.5438771,-0.08098992,-0.3500504,0.0,-0.16977188,0.21125026,0.083680086,0.0887655,-0.1632025,-0.22137304,-0.13551536,1.0861025,-0.6411231,0.79319715,-2.458838,0.010261929,446.97424,1.6904893,0.32125238,0.38496348,0.14261961,0.0866541,inf,inf,inf,inf,1,1,1,1,2,0,2,1,4,1,1,0
74076024,26016546,34.0337013,108.7636997,-1.5466963,5.29295,-1.529964,-0.08098992,-0.3500504,0.0,-0.15547468,0.19423655,0.21366459,0.21650445,-0.1632025,-0.22137304,-0.13551536,1.906735,-0.45192215,0.046373155,-2.4609358,0.010261929,446.97424,1.6765761,0.31258896,0.3837453,0.13703538,0.086185254,inf,inf,inf,inf,1,1,1,1,2,0,2,1,4,1,1,0
74175522,26016546,34.0337013,108.7636997,-1.5649925,5.312957,-1.5084373,-0.08098992,-0.3500504,0.0,-0.1409875,0.17352752,0.28674525,0.28500357,-0.1632025,-0.22137304,-0.13551536,0.6954735,0.5686543,-0.8056429,-2.463039,0.010261929,446.97424,1.6550494,0.3219324,0.3847212,0.14049049,0.086995125,inf,inf,inf,inf,1,1,1,1,2,0,2,1,4,1,1,0
74274676,26016546,34.0337013,108.7636997,-1.5812849,5.328467,-1.4823089,-0.08098992,-0.3500504,0.0,-0.12703553,0.14070389,0.3122024,0.3066695,-0.1632025,-0.22137304,-0.13551536,-0.9941182,-0.6635075,1.3117746,-2.4661207,0.010261929,446.97424,1.628921,0.31142163,0.38500434,0.13495548,0.08648606,inf,inf,inf,inf,1,1,1,1,2,0,2,1,4,1,1,0
74374010,26016546,34.0337013,108.7636997,-1.5979128,5.3369374,-1.4610535,-0.08098992,-0.3500504,0.0,-0.10288559,0.108471535,0.27617213,0.2634674,-0.1632025,-0.22137304,-0.13551536,0.238887,-2.791915,0.09389779,-2.470149,0.010261929,446.97424,1.6076657,0.32038137,0.38596725,0.14028208,0.08750986,inf,inf,inf,inf,1,1,1,1,2,0,2,1,4,1,1,0
74473352,26016546,34.0337013,108.7636997,-1.6114547,5.343549,-1.4426669,-0.08098992,-0.3500504,0.0,-0.08424592,0.08897463,0.20792218,0.19074343,-0.1632025,-0.22137304,-0.13551536,1.4217982,-0.5756061,-1.8973329,-2.4758973,0.010261929,446.97424,1.589279,0.32974243,0.3869509,0.1465901,0.088630125,inf,inf,inf,inf,1,1,1,1,2,0,2,1,4,1,1,0
74572688,26016546,34.0337013,108.7636997,-1.6242279,5.3421845,-1.4315537,-0.08098992,-0.3500504,0.0,-0.06725674,0.06806681,0.14012672,0.118609,-0.1632025,-0.22137304,-0.13551536,0.4490623,0.76001817,-2.0967,-2.4830751,0.010261929,446.97424,1.5781659,0.31934574,0.38509414,0.14410624,0.08830468,inf,inf,inf,inf,1,1,1,1,2,0,2,1,4,1,1,0
74672028,26016546,34.0337013,108.7636997,-1.6369249,5.341138,-1.4253092,-0.08098992,-0.3500504,0.0,-0.061402693,0.04623961,0.102803424,0.07788553,-0.1632025,-0.22137304,-0.13551536,-0.9815414,-0.31478366,-0.7906573,-2.4895294,0.010261929,446.97424,1.5719213,0.3096918,0.38306978,0.141487,0.08789845,inf,inf,inf,inf,1,1,1,1,2,0,2,1,4,1,1,0
74771364,26016546,34.0337013,108.7636997,-1.6570114,5.341342,-1.4236587,-0.08098992,-0.3500504,0.0,-0.05770219,0.033383876,0.08823929,0.05887154,-0.1632025,-0.22137304,-0.13551536,-1.4520106,-0.64376795,1.954016,-2.4950845,0.010261929,446.97424,1.5702709,0.31815776,0.38399827,0.14974438,0.089303434,inf,inf,inf,inf,1,1,1,1,2,0,2,1,4,1,1,0
74870701,26016546,34.0337013,108.7636997,-1.6724682,5.3410077,-1.4203233,-0.08098992,-0.3500504,0.0,-0.039535556,0.018528253,0.07047084,0.04041036,-0.1632025,-0.22137304,-0.13551536,2.0548544,-2.3421566,-0.25239593,-2.4988577,0.010261929,446.97424,1.5669354,0.30882612,0.384294,0.14674619,0.08916035,inf,inf,inf,inf,1,1,1,1,2,0,2,1,4,1,1,0
74970165,26016546,34.0337013,108.7636997,-1.6836143,5.3393,-1.4177969,-0.08098992,-0.3500504,0.0,-0.029492456,0.018654704,0.06649944,0.035546254,-0.1632025,-0.22137304,-0.13551536,0.23256789,2.6611605,-1.1886111,-2.5024009,0.010261929,446.97424,1.564409,0.31714323,0.3852189,0.15539011,0.090692066,inf,inf,inf,inf,1,1,1,1,2,0,2,1,4,1,1,0
75074349,26016546,34.0337013,108.7636997,-1.691143,5.3369036,-1.4142177,-0.08098992,-0.3500504,0.0,-0.011315245,0.0048297374,0.06552935,0.03457434,-0.1632025,-0.22137304,-0.13551536,1.5397109,1.5495074,-1.6905266,-2.5042133,0.010261929,446.97424,1.5608299,0.3080786,0.3831955,0.15178864,0.09038878,inf,inf,inf,inf,1,1,1,1,2,0,2,1,4,1,1,0
75173682,26016546,34.0337013,108.7636997,-1.6952723,5.33359,-1.4101623,-0.08098992,-0.3500504,0.0,0.0029781112,-0.00369784,0.071234524,0.040908087,-0.1632025,-0.22137304,-0.13551536,-0.9326406,0.73920923,0.73336244,-2.5060394,0.010261929,446.97424,1.5567745,0.31632432,0.38412327,0.16091445,0.09207386,inf,inf,inf,inf,1,1,1,1,2,0,2,1,4,1,1,0
75273020,26016546,34.0337013,108.7636997,-1.696374,5.3296857,-1.4062666,-0.08098992,-0.3500504,0.0,0.021320334,-0.022162957,0.06779545,0.03817209,-0.1632025,-0.22137304,-0.13551536,-0.41210932,-1.1371871,0.55533195,-2.5053508,0.010261929,446.97424,1.5528787,0.30747718,0.382134,0.15654802,0.09180653,inf,inf,inf,inf,1,1,1,1,2,0,2,1,4,1,1,0
75372356,26016546,34.0337013,108.7636997,-1.6953162,5.3245006,-1.4004005,-0.08098992,-0.3500504,0.0,0.0464316,-0.026388632,0.05832248,0.031608105,-0.1632025,-0.22137304,-0.13551536,2.4402137,-0.92470014,-1.6480471,-2.5040903,0.010261929,446.97424,1.5470127,0.31572962,0.38538358,0.16542572,0.09377135,inf,inf,inf,inf,1,1,1,1,2,0,2,1,4,1,1,0
75471742,26016546,34.0337013,108.7636997,-1.6917334,5.318777,-1.39445,-0.08098992,-0.3500504,0.0,0.054022186,-0.027378956,0.0599063,0.036175773,-0.1632025,-0.22137304,-0.13551536,-0.6867639,1.9831785,1.1357273,-2.5030363,0.010261929,446.97424,1.5410621,0.30681518,0.38336694,0.1600239,0.093483984,inf,inf,inf,inf,1,1,1,1,2,0,2,1,4,1,1,0
75575999,26016546,34.0337013,108.7636997,-1.6870652,5.3099513,-1.3884853,-0.08098992,-0.3500504,0.0,0.06982657,-0.037738387,0.05196067,0.03117607,-0.1632025,-0.22137304,-0.13551536,0.24153851,0.3877552,0.3840587,-2.5015743,0.010261929,446.97424,1.5350975,0.31510496,0.38433397,0.16883144,0.095349625,inf,inf,inf,inf,1,1,1,1,2,0,2,1,4,1,1,0
75675336,26016546,34.0337013,108.7636997,-1.6808418,5.301502,-1.3821663,-0.08098992,-0.3500504,0.0,0.08555564,-0.051447008,0.046098232,0.029216975,-0.1632025,-0.22137304,-0.13551536,1.6216402,-2.7308602,0.5545011,-2.499758,0.010261929,446.97424,1.5287784,0.30615512,0.38234064,0.16251253,0.09503389,inf,inf,inf,inf,1,1,1,1,2,0,2,1,4,1,1,0
75774888,26016546,34.0337013,108.7636997,-1.6760489,5.2903824,-1.3746183,-0.08098992,-0.3500504,0.0,0.09244854,-0.041906048,0.035616867,0.023804303,-0.1632025,-0.22137304,-0.13551536,1.6053632,2.3527308,-1.6866926,-2.4983413,0.010261929,446.97424,1.5212305,0.3145152,0.3833456,0.17136279,0.097016096,inf,inf,inf,inf,1,1,1,1,2,0,2,1,4,1,1,0
75869044,26016546,34.0337013,108.7636997,-1.669394,5.2810173,-1.3676953,-0.08098992,-0.3500504,0.0,0.100943774,-0.052617956,0.03475975,0.027193796,-0.1632025,-0.22137304,-0.13551536,1.639278,-0.93138623,-1.0879425,-2.4970787,0.010261929,446.97424,1.5143075,0.32274193,0.38385138,0.17921469,0.09875317,inf,inf,inf,inf,1,1,1,1,2,0,2,1,4,1,1,0
75978315,26016546,34.0337013,108.7636997,-1.6655935,5.264279,-1.3582642,-0.08098992,-0.3500504,0.0,0.096253656,-0.06392713,0.037647106,0.036256336,-0.1632025,-0.22137304,-0.13551536,-0.19222012,-1.5875057,1.1260515,-2.496107,0.010261929,446.97424,1.5048764,0.31413856,0.38243026,0.17285566,0.09870728,inf,inf,inf,inf,1,1,1,1,2,0,2,1,4,1,1,0
76067718,26016546,34.0337013,108.7636997,-1.6609138,5.2519774,-1.351831,-0.08098992,-0.3500504,0.0,0.10400741,-0.06094875,0.027302256,0.02961863,-0.1632025,-0.22137304,-0.13551536,1.6433163,-2.1557643,0.45999974,-2.4948049,0.010261929,446.97424,1.4984431,0.3052856,0.38219142,0.16469242,0.09825571,inf,inf,inf,inf,1,1,1,1,2,0,2,1,4,1,1,0
76176992,26016546,34.0337013,108.7636997,-1.6560968,5.2335963,-1.3463596,-0.08098992,-0.3500504,0.0,0.10672123,-0.05832231,0.01955692,0.024232298,-0.1632025,-0.22137304,-0.13551536,0.7709971,1.6187328,-0.96570843,-2.493525,0.010261929,446.97424,1.4929718,0.31467804,0.38387713,0.17336807,0.100547865,inf,inf,inf,inf,1,1,1,1,2,0,2,1,4,1,1,0
76276329,26016546,34.0337013,108.7636997,-1.6512485,5.2193584,-1.341877,-0.08098992,-0.3500504,0.0,0.10849649,-0.059924316,0.022460822,0.028971167,-0.1632025,-0.22137304,-0.13551536,-0.010989592,-0.5948658,1.7854959,-2.4924579,0.010261929,446.97424,1.4884892,0.30827525,0.3819158,0.16581997,0.10007053,inf,inf,inf,inf,1,1,1,1,2,0,2,1,4,1,1,0
76375745,26016546,34.0337013,108.7636997,-1.6506562,5.205654,-1.3372461,-0.08098992,-0.3500504,0.0,0.10628372,-0.049590133,0.009408384,0.018080117,-0.1632025,-0.22137304,-0.13551536,0.5484702,1.7046524,-1.0789268,-2.4902458,0.010261929,446.97424,1.4838582,0.3170139,0.38309443,0.17339803,0.102164455,inf,inf,inf,inf,1,1,1,1,2,0,2,1,4,1,1,0
76475003,26016546,34.0337013,108.7636997,-1.6478008,5.194048,-1.3346053,-0.08098992,-0.3500504,0.0,0.106558904,-0.0480443,0.008764402,0.017990975,-0.1632025,-0.22137304,-0.13551536,-1.2710483,0.64567107,0.16747521,-2.48943,0.010261929,446.97424,1.4812175,0.3100235,0.38114262,0.16541244,0.101583645,inf,inf,inf,inf,1,1,1,1,2,0,2,1,4,1,1,0
76574427,26016546,34.0337013,108.7636997,-1.6440365,5.181709,-1.3318816,-0.08098992,-0.3500504,0.0,0.10913281,-0.04626977,0.008033364,0.01793174,-0.1632025,-0.22137304,-0.13551536,-0.8956862,-0.55617815,0.63681334,-2.4879906,0.010261929,446.97424,1.4784938,0.31888112,0.38237262,0.17269109,0.103709415,inf,inf,inf,inf,1,1,1,1,2,0,2,1,4,1,1,0
76673677,26016546,34.0337013,108.7636997,-1.6384581,5.172207,-1.3303753,-0.08098992,-0.3500504,0.0,0.11286289,-0.034206025,-0.0009395445,0.008775635,-0.1632025,-0.22137304,-0.13551536,-0.20517056,1.5997125,-1.7221148,-2.4869437,0.010261929,446.97424,1.4769875,0.312461,0.3810012,0.1666338,0.10350925,inf,inf,inf,inf,1,1,1,1,2,0,2,1,4,1,1,0
76773015,26016546,34.0337013,108.7636997,-1.6326433,5.161079,-1.3276786,-0.08098992,-0.3500504,0.0,0.113734655,-0.03962638,0.00831648,0.018932715,-0.1632025,-0.22137304,-0.13551536,-1.2133976,-2.1704295,1.3943582,-2.486525,0.010261929,446.97424,1.4742907,0.32160506,0.3823176,0.17363457,0.105643235,inf,inf,inf,inf,1,1,1,1,2,0,2,1,4,1,1,0
76877320,26016546,34.0337013,108.7636997,-1.6243597,5.152557,-1.3259541,-0.08098992,-0.3500504,0.0,0.11254713,-0.024035564,0.002042499,0.012756698,-0.1632025,-0.22137304,-0.13551536,-1.8898184,0.8008229,0.9939654,-2.4862537,0.010261929,446.97424,1.4725662,0.31326157,0.38260183,0.1647465,0.10500281,inf,inf,inf,inf,1,1,1,1,2,0,2,1,4,1,1,0
76976658,26016546,34.0337013,108.7636997,-1.6164004,5.1417317,-1.3244942,-0.08098992,-0.3500504,0.0,0.12144247,-0.020946605,-0.008386987,0.002797531,-0.1632025,-0.22137304,-0.13551536,-0.6503049,-0.4125204,-0.31889036,-2.4856722,0.010261929,446.97424,1.4711064,0.3224135,0.38401023,0.17135434,0.107136846,inf,inf,inf,inf,1,1,1,1,2,0,2,1,4,1,1,0
77076019,26016546,34.0337013,108.7636997,-1.6076418,5.13212,-1.3247229,-0.08098992,-0.3500504,0.0,0.121039875,-0.0087267,-0.011009943,-0.00073746196,-0.1632025,-0.22137304,-0.13551536,-0.44460827,2.7212467,-0.61237574,-2.4860623,0.010261929,446.97424,1.471335,0.313514,0.38199443,0.16289903,0.106253624,inf,inf,inf,inf,1,1,1,1,2,0,2,1,4,1,1,0
77175332,26016546,34.0337013,108.7636997,-1.6001436,5.1189876,-1.3260822,-0.08098992,-0.3500504,0.0,0.11928219,-0.014928453,-0.010352014,-0.0018167123,-0.1632025,-0.22137304,-0.13551536,-1.3264297,-1.3826796,1.2315091,-2.4859211,0.010261929,446.97424,1.4726944,0.32266393,0.3834663,0.16928118,0.10840262,inf,inf,inf,inf,1,1,1,1,2,0,2,1,4,1,1,0
77274670,26016546,34.0337013,108.7636997,-1.5918778,5.1084175,-1.3281676,-0.08098992,-0.3500504,0.0,0.124665685,-0.016239459,-0.015717337,-0.009012953,-0.1632025,-0.22137304,-0.13551536,1.3301245,-1.7909666,-1.6480238,-2.4850903,0.010261929,446.97424,1.4747797,0.31511518,0.3827056,0.16491936,0.108473115,inf,inf,inf,inf,1,1,1,1,2,0,2,1,4,1,1,0
77374057,26016546,34.0337013,108.7636997,-1.5851784,5.0965137,-1.3286791,-0.08098992,-0.3500504,0.0,0.117457286,-0.0094666,-0.0042619198,0.0021312349,-0.1632025,-0.22137304,-0.13551536,-0.87457716,-1.2685372,2.1688247,-2.485283,0.010261929,446.97424,1.4752913,0.3246336,0.3842994,0.1710946,0.11059796,inf,inf,inf,inf,1,1,1,1,2,0,2,1,4,1,1,0
77473345,26016546,34.0337013,108.7636997,-1.5778267,5.0872827,-1.3292595,-0.08098992,-0.3500504,0.0,0.12075834,-0.002438406,-0.014633185,-0.008647162,-0.1632025,-0.22137304,-0.13551536,1.3699669,-0.07877949,-1.1637286,-2.4845634,0.010261929,446.97424,1.4758717,0.31824067,0.3840847,0.16814964,0.11102893,inf,inf,inf,inf,1,1,1,1,2,0,2,1,4,1,1,0
77572683,26016546,34.0337013,108.7636997,-1.5724852,5.0784707,-1.3289268,-0.08098992,-0.3500504,0.0,0.11263822,0.0060501914,-0.011123667,-0.004513388,-0.1632025,-0.22137304,-0.13551536,0.36836413,-0.027700061,0.07949641,-2.4846387,0.010261929,446.97424,1.475539,0.3282763,0.38583037,0.17419411,0.113134906,inf,inf,inf,inf,1,1,1,1,2,0,2,1,4,1,1,0
77672210,26016546,34.0337013,108.7636997,-1.5659695,5.072824,-1.3293114,-0.08098992,-0.3500504,0.0,0.1107906,0.012320651,-0.012305574,-0.00589977,-0.1632025,-0.22137304,-0.13551536,1.4925268,-2.1308055,0.5151352,-2.484396,0.010261929,446.97424,1.4759235,0.32099417,0.38769487,0.1696108,0.11341522,inf,inf,inf,inf,1,1,1,1,2,0,2,1,4,1,1,0
77776325,26016546,34.0337013,108.7636997,-1.5608658,5.0683384,-1.3308368,-0.08098992,-0.3500504,0.0,0.10401263,0.013584385,-0.015208409,-0.009583082,-0.1632025,-0.22137304,-0.13551536,-1.1863308,-2.0757425,0.82008946,-2.4844866,0.010261929,446.97424,1.4774489,0.33139065,0.38959986,0.17548946,0.11550179,inf,inf,inf,inf,1,1,1,1,2,0,2,1,4,1,1,0
77875662,26016546,34.0337013,108.7636997,-1.5550649,5.066222,-1.3336294,-0.08098992,-0.3500504,0.0,0.100276306,0.030771492,-0.022268895,-0.01848472,-0.1632025,-0.22137304,-0.13551536,1.7041738,-0.30995074,-1.8620278,-2.4837441,0.010261929,446.97424,1.4802415,0.32333785,0.38877016,0.1698187,0.11520868,inf,inf,inf,inf,1,1,1,1,2,0,2,1,4,1,1,0
77975000,26016546,34.0337013,108.7636997,-1.5485753,5.064717,-1.3366334,-0.08098992,-0.3500504,0.0,0.0962087,0.03540487,-0.012995135,-0.011189855,-0.1632025,-0.22137304,-0.13551536,-0.59679496,-1.0529678,1.3396816,-2.483759,0.010261929,446.97424,1.4832456,0.33396497,0.39079028,0.1755933,0.11728098,inf,inf,inf,inf,1,1,1,1,2,0,2,1,4,1,1,0
78074341,26016546,34.0337013,108.7636997,-1.5414088,5.0657496,-1.3396126,-0.08098992,-0.3500504,0.0,0.096172795,0.04483871,-0.018691376,-0.018664673,-0.1632025,-0.22137304,-0.13551536,1.159089,0.3121982,-1.654266,-2.4830656,0.010261929,446.97424,1.4862248,0.3224438,0.3884101,0.16513269,0.1155066,inf,inf,inf,inf,1,1,1,1,2,0,2,1,4,1,1,0
78173759,26016546,34.0337013,108.7636997,-1.535015,5.0697074,-1.3411642,-0.08098992,-0.3500504,0.0,0.0889174,0.047102075,-0.0063299043,-0.006696934,-0.1632025,-0.22137304,-0.13551536,-1.1713123,-1.8265884,1.6155374,-2.483889,0.010261929,446.97424,1.4877764,0.33280295,0.3904493,0.17059481,0.1175297,inf,inf,inf,inf,1,1,1,1,2,0,2,1,4,1,1,0
78273014,26016546,34.0337013,108.7636997,-1.5281947,5.0750813,-1.3422375,-0.08098992,-0.3500504,0.0,0.09153379,0.05573241,-0.015783383,-0.01614628,-0.1632025,-0.22137304,-0.13551536,1.585561,-1.6734,-1.3587176,-2.4840047,0.010261929,446.97424,1.4888496,0.32116258,0.38786885,0.16045968,0.11553438,inf,inf,inf,inf,1,1,1,1,2,0,2,1,4,1,1,0
78372351,26016546,34.0337013,108.7636997,-1.5257772,5.0794334,-1.3427801,-0.08098992,-0.3500504,0.0,0.08435346,0.05646639,-0.0049209227,-0.004894869,-0.1632025,-0.22137304,-0.13551536,-0.04677936,-0.3248067,1.7068096,-2.4855034,0.010261929,446.97424,1.4893923,0.33123013,0.39237377,0.1656802,0.11778464,inf,inf,inf,inf,1,1,1,1,2,0,2,1,4,1,1,0
78471844,26016546,34.0337013,108.7636997,-1.5227846,5.0853004,-1.3456112,-0.08098992,-0.3500504,0.0,0.08032099,0.06586765,-0.02935374,-0.031017464,-0.1632025,-0.22137304,-0.13551536,2.031728,-0.5264243,-1.1953061,-2.4914684,0.010261929,446.97424,1.4922234,0.32006454,0.38975552,0.15654701,0.11576458,inf,inf,inf,inf,1,1,1,1,2,0,2,1,4,1,1,0
78571026,26016546,34.0337013,108.7636997,-1.5210506,5.091342,-1.3560896,-0.08098992,-0.3500504,0.0,0.06673818,0.06800301,-0.122190915,-0.12735958,-0.1632025,-0.22137304,-0.13551536,-0.05470898,2.2773738,0.2162169,-2.5158453,0.010261929,446.97424,1.5027018,0.32989392,0.39186913,0.16157341,0.11772828,inf,inf,inf,inf,1,1,1,1,2,0,2,1,4,1,1,0
78670363,26016546,34.0337013,108.7636997,-1.519107,5.098391,-1.3779532,-0.08098992,-0.3500504,0.0,0.06416765,0.06558384,-0.22372793,-0.23257771,-0.1632025,-0.22137304,-0.13551536,1.703266,0.4939841,-2.4903896,-2.5587587,0.010261929,446.97424,1.5245653,0.31901878,0.3892264,0.15326017,0.11570903,inf,inf,inf,inf,1,1,1,1,2,0,2,1,4,1,1,0
78769700,26016546,34.0337013,108.7636997,-1.5190029,5.1060705,-1.4047856,-0.08098992,-0.3500504,0.0,0.053665414,0.062141437,-0.22645903,-0.23833342,-0.1632025,-0.22137304,-0.13551536,-0.40009508,-1.5072976,0.7643174,-2.6210687,0.010261929,446.97424,1.5513978,0.32864982,0.39132565,0.15853892,0.11773497,inf,inf,inf,inf,1,1,1,1,2,0,2,1,4,1,1,0
78869039,26016546,34.0337013,108.7636997,-1.517903,5.1149793,-1.4306879,-0.08098992,-0.3500504,0.0,0.055403475,0.062806435,-0.20584327,-0.22079274,-0.1632025,-0.22137304,-0.13551536,1.6379071,-0.79209673,-1.0582135,-2.6982293,0.010261929,446.97424,1.5773001,0.31803796,0.39108723,0.15077816,0.11595154,inf,inf,inf,inf,1,1,1,1,2,0,2,1,4,1,1,0
78978371,26016546,34.0337013,108.7636997,-1.5163879,5.127919,-1.4609898,-0.08098992,-0.3500504,0.0,0.05834295,0.06511201,-0.17783576,-0.20038448,-0.1632025,-0.22137304,-0.13551536,-0.55455273,1.020849,1.0417883,-2.7810824,0.010261929,446.97424,1.607602,0.32847446,0.39396068,0.15601876,0.11809516,inf,inf,inf,inf,1,1,1,1,2,0,2,1,4,1,1,0
79072681,26016546,34.0337013,108.7636997,-1.5131882,5.137061,-1.483876,-0.08098992,-0.3500504,0.0,0.072108105,0.05602053,-0.1504569,-0.1778436,-0.1632025,-0.22137304,-0.13551536,0.06341185,-0.42426836,1.2074108,-2.8347297,0.010261929,446.97424,1.6304882,0.3176121,0.39082578,0.14847386,0.11591642,inf,inf,inf,inf,1,1,1,1,2,0,2,1,4,1,1,0
79172018,26016546,34.0337013,108.7636997,-1.5117979,5.14011,-1.5040244,-0.08098992,-0.3500504,0.0,0.08140735,0.050652742,-0.15389372,-0.1831698,-0.1632025,-0.22137304,-0.13551536,0.0058949185,-0.3210618,-0.34279656,-2.8754945,0.010261929,446.97424,1.6506366,0.3269516,0.3929858,0.15307385,0.11775588,inf,inf,inf,inf,1,1,1,1,2,0,2,1,4,1,1,0
79271480,26016546,34.0337013,108.7636997,-1.507273,5.143697,-1.5236915,-0.08098992,-0.3500504,0.0,0.09478886,0.042375263,-0.15516034,-0.18565767,-0.1632025,-0.22137304,-0.13551536,0.34420767,-0.87382114,-1.6028789,-2.9077506,0.010261929,446.97424,1.6703037,0.31683612,0.3902632,0.146112,0.115622275,inf,inf,inf,inf,1,1,1,1,2,0,2,1,4,1,1,0
79375659,26016546,34.0337013,108.7636997,-1.4993138,5.148711,-1.5431521,-0.08098992,-0.3500504,0.0,0.10996841,0.044939987,-0.1467909,-0.17811391,-0.1632025,-0.22137304,-0.13551536,0.3296768,0.92391473,-0.87887025,-2.946007,0.010261929,446.97424,1.6897643,0.32602242,0.3924297,0.15076976,0.11745085,inf,inf,inf,inf,1,1,1,1,2,0,2,1,4,1,1,0
79475024,26016546,34.0337013,108.7636997,-1.4909725,5.15258,-1.562537,-0.08098992,-0.3500504,0.0,0.12165391,0.03516728,-0.14248782,-0.17535383,-0.1632025,-0.22137304,-0.13551536,1.4209946,-0.916927,0.5042669,-2.9973104,0.010261929,446.97424,1.7091491,0.31718597,0.3904902,0.14564288,0.11594637,inf,inf,inf,inf,1,1,1,1,2,0,2,1,4,1,1,0
79574331,26016546,34.0337013,108.7636997,-1.4850539,5.153459,-1.5860412,-0.08098992,-0.3500504,0.0,0.12575784,0.02441357,-0.12824188,-0.16703497,-0.1632025,-0.22137304,-0.13551536,-1.3841205,-1.4980974,1.70307,-3.0486465,0.010261929,446.97424,1.7326534,0.32637513,0.3926932,0.15034585,0.11773853,inf,inf,inf,inf,1,1,1,1,2,0,2,1,4,1,1,0
79673672,26016546,34.0337013,108.7636997,-1.4769342,5.1545067,-1.6093014,-0.08098992,-0.3500504,0.0,0.13987243,0.015328681,-0.13630962,-0.18080288,-0.1632025,-0.22137304,-0.13551536,1.4627745,-1.069966,-1.4380733,-3.0817766,0.010261929,446.97424,1.7559136,0.31637907,0.3923689,0.14383592,0.11578511,inf,inf,inf,inf,1,1,1,1,2,0,2,1,4,1,1,0
79773009,26016546,34.0337013,108.7636997,-1.469616,5.1556125,-1.6360003,-0.08098992,-0.3500504,0.0,0.14726724,0.007282961,-0.1447818,-0.19690205,-0.1632025,-0.22137304,-0.13551536,2.0108235,0.08448483,-1.2949436,-3.102836,0.010261929,446.97424,1.7826124,0.32541978,0.39461043,0.14853139,0.11753954,inf,inf,inf,inf,1,1,1,1,2,0,2,1,4,1,1,0
79872347,26016546,34.0337013,108.7636997,-1.4590795,5.1560345,-1.6602988,-0.08098992,-0.3500504,0.0,0.15424094,0.00836833,-0.14341344,-0.19948676,-0.1632025,-0.22137304,-0.13551536,-0.057311613,1.5845048,-0.058275238,-3.1169398,0.010261929,446.97424,1.806911,0.31565508,0.39179635,0.1425695,0.115342,inf,inf,inf,inf,1,1,1,1,2,0,2,1,4,1,1,0
79971684,26016546,34.0337013,108.7636997,-1.4459063,5.155458,-1.6805052,-0.08098992,-0.3500504,0.0,0.15487489,0.0022986114,-0.13171999,-0.18758123,-0.1632025,-0.22137304,-0.13551536,-1.4940697,-1.1992161,2.0715756,-3.1260893,0.010261929,446.97424,1.8271173,0.32457322,0.39401543,0.14743055,0.11707542,inf,inf,inf,inf,1,1,1,1,2,0,2,1,4,1,1,0
80071163,26016546,34.0337013,108.7636997,-1.4336579,5.157442,-1.6982373,-0.08098992,-0.3500504,0.0,0.11121169,0.012086462,-0.13156477,-0.18557772,-0.1632025,-0.22137304,-0.13551536,-0.46810254,0.62242424,-1.4524349,-3.1311197,0.010261929,446.97424,1.8448495,0.31482968,0.39119932,0.14161843,0.114858136,inf,inf,inf,inf,1,1,1,1,2,0,2,1,4,1,1,0
80175327,26016546,34.0337013,108.7636997,-1.4261047,5.1629205,-1.7154155,-0.08098992,-0.3500504,0.0,0.028861687,0.029131893,-0.13212965,-0.18403071,-0.1632025,-0.22137304,-0.13551536,-0.0034699473,0.24700724,-1.2024328,-3.134248,0.010261929,446.97424,1.8620276,0.32362846,0.3934014,0.1465147,0.116548814,inf,inf,inf,inf,1,1,1,1,2,0,2,1,4,1,1,0
80274664,26016546,34.0337013,108.7636997,-1.4311109,5.16945,-1.7338496,-0.08098992,-0.3500504,0.0,-0.11820432,0.03284465,-0.14474982,-0.19596982,-0.1632025,-0.22137304,-0.13551536,-0.22049125,0.690243,-1.3469601,-3.1365662,0.010261929,446.97424,1.8804618,0.31401125,0.3905942,0.1411348,0.11439023,inf,inf,inf,inf,1,1,1,1,2,0,2,1,4,1,1,0
80374002,26016546,34.0337013,108.7636997,-1.4588578,5.178804,-1.7560943,-0.08098992,-0.3500504,0.0,-0.32007942,0.053254727,-0.18084675,-0.23291013,-0.1632025,-0.22137304,-0.13551536,-1.1837596,-0.2903456,-1.8695297,-3.1396618,0.010261929,446.97424,1.9027065,0.3227131,0.3952959,0.14621326,0.11635737,inf,inf,inf,inf,1,1,1,1,2,0,2,1,4,1,1,0
80473339,26016546,34.0337013,108.7636997,-1.5060868,5.187285,-1.7823462,-0.08098992,-0.3500504,0.0,-0.5329003,0.053354878,-0.19907254,-0.2525647,-0.1632025,-0.22137304,-0.13551536,-2.669537,-0.14690912,-1.5017279,3.1391542,0.010261929,446.97424,1.9289584,0.31432572,0.39330682,0.1423031,0.11481448,inf,inf,inf,inf,1,1,1,1,2,0,2,1,4,1,1,0
80572676,26016546,34.0337013,108.7636997,-1.5780905,5.192559,-1.8092899,-0.08098992,-0.3500504,0.0,-0.7231272,0.0588959,-0.18639338,-0.24169792,-0.1632025,-0.22137304,-0.13551536,-0.87115747,1.1201932,-1.1960591,3.135272,0.010261929,446.97424,1.9559021,0.3230828,0.39555854,0.1477189,0.11647725,inf,inf,inf,inf,1,1,1,1,2,0,2,1,4,1,1,0
80672067,26016546,34.0337013,108.7636997,-1.6615679,5.198903,-1.8325182,-0.08098992,-0.3500504,0.0,-0.8566963,0.04914243,-0.15324892,-0.20864885,-0.1632025,-0.22137304,-0.13551536,-2.1175616,-1.2848607,1.5863883,3.1318495,0.010261929,446.97424,1.9791304,0.3134985,0.39265692,0.14239076,0.1142421,inf,inf,inf,inf,1,1,1,1,2,0,2,1,4,1,1,0
80771351,26016546,34.0337013,108.7636997,-1.7457267,5.2092648,-1.8555818,-0.08098992,-0.3500504,0.0,-0.9131246,0.05491434,-0.14157201,-0.1985787,-0.1632025,-0.22137304,-0.13551536,-0.6605829,0.96110415,1.5615547,3.1288998,0.010261929,446.97424,2.002194,0.32216808,0.3948655,0.14768662,0.11583243,inf,inf,inf,inf,1,1,1,1,2,0,2,1,4,1,1,0
80870740,26016546,34.0337013,108.7636997,-1.8290313,5.218228,-1.8772274,-0.08098992,-0.3500504,0.0,-0.8846533,0.05016669,-0.14773168,-0.20547234,-0.1632025,-0.22137304,-0.13551536,1.1400274,-1.861126,-0.9838966,3.1274378,0.010261929,446.97424,2.0238395,0.31268996,0.39444664,0.14222771,0.113895096,inf,inf,inf,inf,1,1,1,1,2,0,2,1,4,1,1,0
80974994,26016546,34.0337013,108.7636997,-1.8990335,5.2256637,-1.9046617,-0.08098992,-0.3500504,0.0,-0.7935211,0.047690902,-0.14605021,-0.2092468,-0.1632025,-0.22137304,-0.13551536,0.21407115,-1.6407553,0.6781332,3.1276853,0.010261929,446.97424,2.0512738,0.32128346,0.39666942,0.14737524,0.11548217,inf,inf,inf,inf,1,1,1,1,2,0,2,1,4,1,1,0
81074331,26016546,34.0337013,108.7636997,-1.9590228,5.2321057,-1.9323384,-0.08098992,-0.3500504,0.0,-0.72451454,0.059047606,-0.1381473,-0.2076839,-0.1632025,-0.22137304,-0.13551536,-0.09434367,1.9361751,0.9032496,3.128869,0.010261929,446.97424,2.0789504,0.31218526,0.39395773,0.14217213,0.11344695,inf,inf,inf,inf,1,1,1,1,2,0,2,1,4,1,1,0
81173669,26016546,34.0337013,108.7636997,-2.005777,5.23851,-1.9688939,-0.08098992,-0.3500504,0.0,-0.62486655,0.046107046,-0.14253443,-0.22645529,-0.1632025,-0.22137304,-0.13551536,1.982457,-0.54431075,-0.746996,3.1300962,0.010261929,446.97424,2.115506,0.3207618,0.3961697,0.1473062,0.11501538,inf,inf,inf,inf,1,1,1,1,2,0,2,1,4,1,1,0
81273006,26016546,34.0337013,108.7636997,-2.0522122,5.2470345,-2.0053673,-0.08098992,-0.3500504,0.0,-0.5636631,0.053228296,-0.15558875,-0.2519149,-0.1632025,-0.22137304,-0.13551536,1.2927494,0.21374601,-0.5259556,3.1292944,0.010261929,446.97424,2.1519794,0.31162775,0.3932712,0.14183623,0.11284863,inf,inf,inf,inf,1,1,1,1,2,0,2,1,4,1,1,0
81372347,26016546,34.0337013,108.7636997,-2.0971508,5.2602077,-2.0479894,-0.08098992,-0.3500504,0.0,-0.4955076,0.055692628,-0.17282104,-0.2832485,-0.1632025,-0.22137304,-0.13551536,0.7275886,-0.008237673,1.4888183,3.128642,0.010261929,446.97424,2.1946015,0.3201678,0.39542562,0.14683108,0.11435981,inf,inf,inf,inf,1,1,1,1,2,0,2,1,4,1,1,0
81471681,26016546,34.0337013,108.7636997,-2.1430964,5.269021,-2.0871396,-0.08098992,-0.3500504,0.0,-0.48499233,0.048847485,-0.14394915,-0.26416183,-0.1632025,-0.22137304,-0.13551536,-0.6845886,-1.5150136,-0.27691296,3.1311004,0.010261929,446.97424,2.2337518,0.3122292,0.39597592,0.14306228,0.11320058,inf,inf,inf,inf,1,1,1,1,2,0,2,1,4,1,1,0
81571019,26016546,34.0337013,108.7636997,-2.196789,5.271823,-2.1223814,-0.08098992,-0.3500504,0.0,-0.48291305,0.046519384,-0.035019875,-0.16664335,-0.1632025,-0.22137304,-0.13551536,0.30698213,-1.3710362,0.72881675,3.1332984,0.010261929,446.97424,2.2689936,0.3208903,0.39818326,0.1481249,0.11470157,inf,inf,inf,inf,1,1,1,1,2,0,2,1,4,1,1,0
81670383,26016546,34.0337013,108.7636997,-2.2483559,5.2744846,-2.143364,-0.08098992,-0.3500504,0.0,-0.45507535,0.048497833,0.030717824,-0.10732257,-0.1632025,-0.22137304,-0.13551536,1.280676,0.19218402,-1.168037,3.133931,0.010261929,446.97424,2.2899761,0.3122898,0.39573178,0.14322188,0.11287422,inf,inf,inf,inf,1,1,1,1,2,0,2,1,4,1,1,0
81769694,26016546,34.0337013,108.7636997,-2.2982526,5.2753897,-2.1647289,-0.08098992,-0.3500504,0.0,-0.5033891,0.039724857,0.048319,-0.099022225,-0.1632025,-0.22137304,-0.13551536,-1.2005339,-1.7431197,0.79113233,3.135803,0.010261929,446.97424,2.311341,0.32097787,0.39791858,0.14777867,0.1142673,inf,inf,inf,inf,1,1,1,1,2,0,2,1,4,1,1,0
81869033,26016546,34.0337013,108.7636997,-2.3579142,5.276108,-2.1828015,-0.08098992,-0.3500504,0.0,-0.58993626,0.047833316,0.043540712,-0.10915675,-0.1632025,-0.22137304,-0.13551536,0.10303433,2.4826305,0.61283123,3.1379244,0.010261929,446.97424,2.3294137,0.31177709,0.3948816,0.14211631,0.112076506,inf,inf,inf,inf,1,1,1,1,2,0,2,1,4,1,1,0
81968577,26016546,34.0337013,108.7636997,-2.432206,5.276368,-2.2002215,-0.08098992,-0.3500504,0.0,-0.6980217,0.037283335,0.019423412,-0.13593152,-0.1632025,-0.22137304,-0.13551536,-1.705996,0.089626275,1.1131935,3.1393495,0.010261929,446.97424,2.3468337,0.3204085,0.39701918,0.14708695,0.11351553,inf,inf,inf,inf,1,1,1,1,2,0,2,1,4,1,1,0
82072674,26016546,34.0337013,108.7636997,-2.5236728,5.2771053,-2.2163455,-0.08098992,-0.3500504,0.0,-0.84211695,0.029312795,0.0187468,-0.1358572,-0.1632025,-0.22137304,-0.13551536,-3.4791648,-1.3805451,1.9904524,3.141098,0.010261929,446.97424,2.3629577,0.3112207,0.39651996,0.1416105,0.11167007,inf,inf,inf,inf,1,1,1,1,2,0,2,1,4,1,1,0
82172011,26016546,34.0337013,108.7636997,-2.6448553,5.2770915,-2.234128,-0.08098992,-0.3500504,0.0,-0.9936262,0.036938738,0.027936962,-0.12920523,-0.1632025,-0.22137304,-0.13551536,0.7226226,1.243361,-1.7714213,-3.139042,0.010261929,446.97424,2.3807402,0.31981084,0.39864483,0.1469567,0.11314611,inf,inf,inf,inf,1,1,1,1,2,0,2,1,4,1,1,0
82276316,26016546,34.0337013,108.7636997,-2.7784097,5.2785316,-2.2509341,-0.08098992,-0.3500504,0.0,-1.102543,0.021996666,0.050668515,-0.10936466,-0.1632025,-0.22137304,-0.13551536,-1.2880251,-2.6807382,-0.7260756,-3.1367302,0.010261929,446.97424,2.3975463,0.31073594,0.39561528,0.14156747,0.11103392,inf,inf,inf,inf,1,1,1,1,2,0,2,1,4,1,1,0
82375653,26016546,34.0337013,108.7636997,-2.9151115,5.280865,-2.2693834,-0.08098992,-0.3500504,0.0,-1.1656941,0.025528328,0.0855757,-0.081216216,-0.1632025,-0.22137304,-0.13551536,0.20083524,0.38067564,0.8870412,-3.1341908,0.010261929,446.97424,2.4159956,0.3193009,0.39771536,0.14652778,0.11243584,inf,inf,inf,inf,1,1,1,1,2,0,2,1,4,1,1,0
82475050,26016546,34.0337013,108.7636997,-3.0498211,5.2811866,-2.2827773,-0.08098992,-0.3500504,0.0,-1.161429,0.023613712,0.11292559,-0.057608187,-0.1632025,-0.22137304,-0.13551536,-0.7099866,0.0879377,1.4655126,-3.1312683,0.010261929,446.97424,2.4293895,0.31022286,0.39473128,0.14124183,0.11038772,inf,inf,inf,inf,1,1,1,1,2,0,2,1,4,1,1,0
82574330,26016546,34.0337013,108.7636997,-3.1816704,5.276294,-2.2973974,-0.08098992,-0.3500504,0.0,-1.1666666,0.020638086,0.13649327,-0.040821664,-0.1632025,-0.22137304,-0.13551536,-0.29065958,1.5331957,0.53120214,-3.1289296,0.010261929,446.97424,2.4440095,0.31875956,0.3968057,0.14600416,0.111762956,inf,inf,inf,inf,1,1,1,1,2,0,2,1,4,1,1,0
82673666,26016546,34.0337013,108.7636997,-3.30989,5.2717795,-2.3073597,-0.08098992,-0.3500504,0.0,-1.1428214,0.010319139,0.16733238,-0.01450722,-0.1632025,-0.22137304,-0.13551536,0.22799563,0.55946094,1.5201913,-3.1275926,0.010261929,446.97424,2.4539719,0.30976567,0.39384973,0.1404944,0.10972189,inf,inf,inf,inf,1,1,1,1,2,0,2,1,4,1,1,0
82773154,26016546,34.0337013,108.7636997,-3.4325795,5.26628,-2.3205283,-0.08098992,-0.3500504,0.0,-1.0702832,0.0071169487,0.15595627,-0.033771493,-0.1632025,-0.22137304,-0.13551536,1.38199,0.4928221,-0.91257006,-3.128402,0.010261929,446.97424,2.4671404,0.3182726,0.39845476,0.14511162,0.11136821,inf,inf,inf,inf,1,1,1,1,2,0,2,1,4,1,1,0
82872342,26016546,34.0337013,108.7636997,-3.5574822,5.261437,-2.3265128,-0.08098992,-0.3500504,0.0,-1.1161696,-0.013300487,0.17258899,-0.017796954,-0.1632025,-0.22137304,-0.13551536,-0.03292796,-3.3588512,-0.7300055,-3.1264129,0.010261929,446.97424,2.473125,0.30937463,0.3954869,0.13974172,0.109362,inf,inf,inf,inf,1,1,1,1,2,0,2,1,4,1,1,0
82971680,26016546,34.0337013,108.7636997,-3.6973295,5.256865,-2.327565,-0.08098992,-0.3500504,0.0,-1.1503509,-0.0024870497,0.18684736,-0.001073835,-0.1632025,-0.22137304,-0.13551536,0.6323228,-0.6912155,0.663358,-3.1258128,0.010261929,446.97424,2.4741771,0.31785774,0.3975392,0.14449082,0.11072451,inf,inf,inf,inf,1,1,1,1,2,0,2,1,4,1,1,0
83075983,26016546,34.0337013,108.7636997,-3.8433821,5.2506514,-2.3256474,-0.08098992,-0.3500504,0.0,-1.1791677,-0.01642092,0.17888767,-0.00465244,-0.1632025,-0.22137304,-0.13551536,-1.492128,-2.9421835,0.6954897,-3.1256597,0.010261929,446.97424,2.4722595,0.30901718,0.3946063,0.13925329,0.10876163,inf,inf,inf,inf,1,1,1,1,2,0,2,1,4,1,1,0
83175320,26016546,34.0337013,108.7636997,-3.991131,5.2407618,-2.3223372,-0.08098992,-0.3500504,0.0,-1.1914132,-0.010867146,0.19324988,0.0152287,-0.1632025,-0.22137304,-0.13551536,0.6080168,0.03028046,1.3503208,-3.1250324,0.010261929,446.97424,2.4689493,0.3174811,0.39661586,0.14399707,0.110103555,inf,inf,inf,inf,1,1,1,1,2,0,2,1,4,1,1,0
83274738,26016546,34.0337013,108.7636997,-4.131377,5.234322,-2.3152523,-0.08098992,-0.3500504,0.0,-1.191749,-0.017059932,0.20493576,0.033956394,-0.1632025,-0.22137304,-0.13551536,-0.059582975,0.6306058,-0.19214521,-3.1236994,0.010261929,446.97424,2.4618645,0.3087342,0.3937167,0.13906492,0.10820928,inf,inf,inf,inf,1,1,1,1,2,0,2,1,4,1,1,0
83373996,26016546,34.0337013,108.7636997,-4.2606587,5.2333126,-2.3091896,-0.08098992,-0.3500504,0.0,-1.0946618,-0.015976211,0.2016707,0.035595775,-0.1632025,-0.22137304,-0.13551536,1.286773,-1.1011106,-0.48092267,-3.1213906,0.010261929,446.97424,2.4558017,0.3171908,0.39570424,0.14371093,0.1095267,inf,inf,inf,inf,1,1,1,1,2,0,2,1,4,1,1,0
83473337,26016546,34.0337013,108.7636997,-4.3811345,5.231521,-2.2987664,-0.08098992,-0.3500504,0.0,-1.0539435,-0.023050154,0.20869294,0.05090116,-0.1632025,-0.22137304,-0.13551536,2.110041,0.6729055,-1.2799902,-3.1188364,0.010261929,446.97424,2.4453785,0.30848843,0.39284858,0.13858218,0.10763485,inf,inf,inf,inf,1,1,1,1,2,0,2,1,4,1,1,0
83572785,26016546,34.0337013,108.7636997,-4.4981604,5.2279053,-2.2839339,-0.08098992,-0.3500504,0.0,-1.0106432,-0.030318381,0.21493027,0.067651734,-0.1632025,-0.22137304,-0.13551536,-0.50780475,-2.44989,-0.4300455,-3.118399,0.010261929,446.97424,2.430546,0.3169316,0.39734906,0.14333165,0.10924195,inf,inf,inf,inf,1,1,1,1,2,0,2,1,4,1,1,0
83672008,26016546,34.0337013,108.7636997,-4.608699,5.228019,-2.2670848,-0.08098992,-0.3500504,0.0,-1.010895,-0.02333667,0.20826304,0.0723669,-0.1632025,-0.22137304,-0.13551536,0.16593117,-0.6877711,1.398989,-3.119007,0.010261929,446.97424,2.413697,0.30831248,0.39447135,0.13826753,0.107365295,inf,inf,inf,inf,1,1,1,1,2,0,2,1,4,1,1,0
83771346,26016546,34.0337013,108.7636997,-4.7221975,5.2343483,-2.2506127,-0.08098992,-0.3500504,0.0,-1.0937034,-0.024548436,0.1829113,0.058101065,-0.1632025,-0.22137304,-0.13551536,-0.71964324,0.15786521,-0.2676016,-3.12057,0.010261929,446.97424,2.397225,0.31674543,0.3964324,0.14298618,0.10866943,inf,inf,inf,inf,1,1,1,1,2,0,2,1,4,1,1,0
83875650,26016546,34.0337013,108.7636997,-4.851337,5.238626,-2.2381785,-0.08098992,-0.3500504,0.0,-1.2578311,-0.024949653,0.14861059,0.03172803,-0.1632025,-0.22137304,-0.13551536,-1.5989538,1.6714544,0.34144628,-3.1220345,0.010261929,446.97424,2.3847907,0.30819792,0.39358786,0.13809076,0.1068481,inf,inf,inf,inf,1,1,1,1,2,0,2,1,4,1,1,0
83974987,26016546,34.0337013,108.7636997,-4.9909897,5.2410216,-2.2379913,-0.08098992,-0.3500504,0.0,-1.4255785,-0.032759618,0.054698274,-0.060500614,-0.1632025,-0.22137304,-0.13551536,-1.812787,-0.74400085,-0.4730894,-3.1241624,0.010261929,446.97424,2.3846035,0.31663,0.39551947,0.14286731,0.108147025,inf,inf,inf,inf,1,1,1,1,2,0,2,1,4,1,1,0
84074327,26016546,34.0337013,108.7636997,-5.1511497,5.245332,-2.2441542,-0.08098992,-0.3500504,0.0,-1.6258144,-0.025163399,-0.08416844,-0.1926109,-0.1632025,-0.22137304,-0.13551536,-2.12945,0.65072453,-2.8087304,-3.1267955,0.010261929,446.97424,2.3907664,0.30860108,0.3955167,0.13879935,0.10686566,inf,inf,inf,inf,1,1,1,1,2,0,2,1,4,1,1,0
84173663,26016546,34.0337013,108.7636997,-5.3359146,5.2535734,-2.2578907,-0.08098992,-0.3500504,0.0,-1.7783849,-0.03431213,-0.23048362,-0.3259764,-0.1632025,-0.22137304,-0.13551536,-0.42876995,-1.5244026,-1.9992497,-3.1289916,0.010261929,446.97424,2.4045029,0.31710327,0.3974588,0.14404574,0.10818803,inf,inf,inf,inf,1,1,1,1,2,0,2,1,4,1,1,0
84273000,26016546,34.0337013,108.7636997,-5.524898,5.2622895,-2.2853832,-0.08098992,-0.3500504,0.0,-1.835903,-0.024515655,-0.33653516,-0.42132348,-0.1632025,-0.22137304,-0.13551536,-0.3212341,0.45237628,-0.44599628,-3.1305554,0.010261929,446.97424,2.4319954,0.30953085,0.39522165,0.14065513,0.10684357,inf,inf,inf,inf,1,1,1,1,2,0,2,1,4,1,1,0
84372417,26016546,34.0337013,108.7636997,-5.7085996,5.273225,-2.320332,-0.08098992,-0.3500504,0.0,-1.8096282,-0.019491458,-0.37600982,-0.4515187,-0.1632025,-0.22137304,-0.13551536,2.2774203,1.9980538,-1.9499049,-3.1314588,0.010261929,446.97424,2.4669442,0.31816825,0.39715624,0.1461037,0.108175084,inf,inf,inf,inf,1,1,1,1,2,0,2,1,4,1,1,0
84476643,26016546,34.0337013,108.7636997,-5.8949995,5.283333,-2.3519523,-0.08098992,-0.3500504,0.0,-1.7610531,-0.026325066,-0.31070808,-0.37377644,-0.1632025,-0.22137304,-0.13551536,-1.3750191,-0.92363197,2.4279747,-3.1309853,0.010261929,446.97424,2.4985645,0.31002057,0.3945331,0.14148265,0.10655087,inf,inf,inf,inf,1,1,1,1,2,0,2,1,4,1,1,0
84575983,26016546,34.0337013,108.7636997,-6.0658073,5.294666,-2.3717883,-0.08098992,-0.3500504,0.0,-1.6852369,-0.025269873,-0.2372559,-0.28716505,-0.1632025,-0.22137304,-0.13551536,-0.045451473,-0.28676412,1.6991296,-3.128956,0.010261929,446.97424,2.5184004,0.31870502,0.39642817,0.14644855,0.10781212,inf,inf,inf,inf,1,1,1,1,2,0,2,1,4,1,1,0
84675317,26016546,34.0337013,108.7636997,-6.22256,5.306348,-2.3853056,-0.08098992,-0.3500504,0.0,-1.5714717,-0.029447138,-0.22545758,-0.2616775,-0.1632025,-0.22137304,-0.13551536,-0.5608371,-1.0607194,1.1356486,-3.1273737,0.010261929,446.97424,2.5319178,0.31098798,0.39665836,0.14162701,0.106612384,inf,inf,inf,inf,1,1,1,1,2,0,2,1,4,1,1,0
84774654,26016546,34.0337013,108.7636997,-6.3691382,5.3217506,-2.396438,-0.08098992,-0.3500504,0.0,-1.537107,-0.022941459,-0.22829278,-0.2504333,-0.1632025,-0.22137304,-0.13551536,0.7376453,2.6928942,-0.53254706,-3.125687,0.010261929,446.97424,2.54305,0.31973672,0.39857894,0.14608261,0.10781328,inf,inf,inf,inf,1,1,1,1,2,0,2,1,4,1,1,0
84874002,26016546,34.0337013,108.7636997,-6.5125957,5.3349967,-2.4091036,-0.08098992,-0.3500504,0.0,-1.5373935,-0.03884911,-0.23807836,-0.24818747,-0.1632025,-0.22137304,-0.13551536,-1.0718908,-0.7978528,-1.1793392,-3.1257513,0.010261929,446.97424,2.5557158,0.31182075,0.3961056,0.141369,0.10626819,inf,inf,inf,inf,1,1,1,1,2,0,2,1,4,1,1,0
84973331,26016546,34.0337013,108.7636997,-6.6573987,5.350109,-2.4231327,-0.08098992,-0.3500504,0.0,-1.6192255,-0.034937285,-0.28674328,-0.28578308,-0.1632025,-0.22137304,-0.13551536,-3.6045947,0.30713537,0.8126884,-3.1293335,0.010261929,446.97424,2.5697448,0.32060888,0.39800256,0.14611423,0.10748853,inf,inf,inf,inf,1,1,1,1,2,0,2,1,4,1,1,0
85072668,26016546,34.0337013,108.7636997,-6.8173203,5.3616242,-2.4440796,-0.08098992,-0.3500504,0.0,-1.7374753,-0.04303047,-0.37404266,-0.36239082,-0.1632025,-0.22137304,-0.13551536,-1.8321722,0.69565845,0.008905294,-3.1342213,0.010261929,446.97424,2.5906918,0.31310263,0.3958379,0.14200139,0.10615947,inf,inf,inf,inf,1,1,1,1,2,0,2,1,4,1,1,0
85172110,26016546,34.0337013,108.7636997,-6.9951725,5.3725133,-2.4695134,-0.08098992,-0.3500504,0.0,-1.8606622,-0.047676433,-0.39039403,-0.3675774,-0.1632025,-0.22137304,-0.13551536,-0.5803009,0.21107163,2.0246265,-3.1384618,0.010261929,446.97424,2.6161256,0.3219869,0.39772046,0.14707962,0.107393935,inf,inf,inf,inf,1,1,1,1,2,0,2,1,4,1,1,0
85276306,26016546,34.0337013,108.7636997,-7.1953783,5.3817496,-2.4946547,-0.08098992,-0.3500504,0.0,-1.9678377,-0.051164016,-0.36504585,-0.3314462,-0.1632025,-0.22137304,-0.13551536,0.031259608,-0.09360659,1.8736079,-3.1410823,0.010261929,446.97424,2.6412668,0.31338134,0.39484113,0.14187792,0.105634555,inf,inf,inf,inf,1,1,1,1,2,0,2,1,4,1,1,0
85375647,26016546,34.0337013,108.7636997,-7.3954244,5.3932858,-2.5157437,-0.08098992,-0.3500504,0.0,-2.0088356,-0.055679873,-0.36597204,-0.32286122,-0.1632025,-0.22137304,-0.13551536,-0.56797165,-0.5695289,-1.5553582,3.140802,0.010261929,446.97424,2.662356,0.3222424,0.39926478,0.14666194,0.10712625,inf,inf,inf,inf,1,1,1,1,2,0,2,1,4,1,1,0
85474986,26016546,34.0337013,108.7636997,-7.594432,5.4024897,-2.5327656,-0.08098992,-0.3500504,0.0,-1.9714743,-0.05718754,-0.34560293,-0.29049012,-0.1632025,-0.22137304,-0.13551536,0.45765644,1.0267422,1.5510312,3.1404696,0.010261929,446.97424,2.6793778,0.31354946,0.39631948,0.14119546,0.10533629,inf,inf,inf,inf,1,1,1,1,2,0,2,1,4,1,1,0
85574322,26016546,34.0337013,108.7636997,-7.7844477,5.412109,-2.5458753,-0.08098992,-0.3500504,0.0,-1.8509089,-0.05747409,-0.35716406,-0.28816465,-0.1632025,-0.22137304,-0.13551536,3.0317729,-0.3410234,-1.4838126,3.1408935,0.010261929,446.97424,2.6924875,0.32236344,0.39818063,0.14593762,0.1065333,inf,inf,inf,inf,1,1,1,1,2,0,2,1,4,1,1,0
85673705,26016546,34.0337013,108.7636997,-7.955393,5.421426,-2.5632656,-0.08098992,-0.3500504,0.0,-1.6705843,-0.056317322,-0.3565736,-0.27858466,-0.1632025,-0.22137304,-0.13551536,1.0223008,0.43330413,1.5689132,3.1410875,0.010261929,446.97424,2.7098777,0.3136633,0.39528048,0.1404174,0.104762174,inf,inf,inf,inf,1,1,1,1,2,0,2,1,4,1,1,0
85773026,26016546,34.0337013,108.7636997,-8.103024,5.434957,-2.5815341,-0.08098992,-0.3500504,0.0,-1.5017538,-0.045954898,-0.3495884,-0.2646593,-0.1632025,-0.22137304,-0.13551536,1.7705009,2.1272442,0.48112133,-3.1399121,0.010261929,446.97424,2.7281463,0.3224276,0.39710772,0.14517201,0.10593379,inf,inf,inf,inf,1,1,1,1,2,0,2,1,4,1,1,0
85872335,26016546,34.0337013,108.7636997,-8.234619,5.4450355,-2.6029963,-0.08098992,-0.3500504,0.0,-1.3151603,-0.048170652,-0.3336854,-0.24735765,-0.1632025,-0.22137304,-0.13551536,3.6424222,-0.08191535,-0.15506436,-3.137752,0.010261929,446.97424,2.7496085,0.3143361,0.39464498,0.14054468,0.104427926,inf,inf,inf,inf,1,1,1,1,2,0,2,1,4,1,1,0
85971720,26016546,34.0337013,108.7636997,-8.352442,5.454133,-2.6258643,-0.08098992,-0.3500504,0.0,-1.2022555,-0.05103488,-0.32521582,-0.24014327,-0.1632025,-0.22137304,-0.13551536,-0.016330319,1.0653317,0.6623813,-3.1383295,0.010261929,446.97424,2.7724764,0.32312205,0.39643902,0.14528495,0.10556479,inf,inf,inf,inf,1,1,1,1,2,0,2,1,4,1,1,0
86071010,26016546,34.0337013,108.7636997,-8.465624,5.4582314,-2.6496766,-0.08098992,-0.3500504,0.0,-1.1649538,-0.0557728,-0.34265953,-0.25855407,-0.1632025,-0.22137304,-0.13551536,-0.78313327,-1.1882545,-1.6607792,-3.139376,0.010261929,446.97424,2.7962887,0.31518212,0.39666623,0.14088757,0.10445599,inf,inf,inf,inf,1,1,1,1,2,0,2,1,4,1,1,0
86170347,26016546,34.0337013,108.7636997,-8.588272,5.4563394,-2.6661122,-0.08098992,-0.3500504,0.0,-1.2087462,-0.05653508,-0.34885275,-0.25748816,-0.1632025,-0.22137304,-0.13551536,-2.1462872,0.028168056,0.6617433,3.1410713,0.010261929,446.97424,2.8127244,0.3240017,0.39848232,0.14567998,0.10561872,inf,inf,inf,inf,1,1,1,1,2,0,2,1,4,1,1,0
86279622,26016546,34.0337013,108.7636997,-8.727215,5.453572,-2.6860638,-0.08098992,-0.3500504,0.0,-1.2492634,-0.05116998,-0.39067888,-0.29113752,-0.1632025,-0.22137304,-0.13551536,-0.91049457,2.8711379,0.9700707,3.1371732,0.010261929,446.97424,2.832676,0.3185461,0.3979142,0.14357497,0.105069615,inf,inf,inf,inf,1,1,1,1,2,0,2,1,4,1,1,0
86369024,26016546,34.0337013,108.7636997,-8.846225,5.4517198,-2.7044146,-0.08098992,-0.3500504,0.0,-1.3248925,-0.052613467,-0.39984864,-0.294062,-0.1632025,-0.22137304,-0.13551536,-2.4058716,-0.33148184,-0.3181979,3.1352694,0.010261929,446.97424,2.8510268,0.32671878,0.3990439,0.14787434,0.10604194,inf,inf,inf,inf,1,1,1,1,2,0,2,1,4,1,1,0
86478336,26016546,34.0337013,108.7636997,-8.998452,5.4511757,-2.7297153,-0.08098992,-0.3500504,0.0,-1.4007403,-0.051326178,-0.38726136,-0.27784294,-0.1632025,-0.22137304,-0.13551536,-1.4087052,-1.7525729,-0.028722744,3.1347632,0.010261929,446.97424,2.8763275,0.31958124,0.39749703,0.14385337,0.10488733,inf,inf,inf,inf,1,1,1,1,2,0,2,1,4,1,1,0
86572664,26016546,34.0337013,108.7636997,-9.134225,5.4549084,-2.754111,-0.08098992,-0.3500504,0.0,-1.4240339,-0.037337404,-0.39005318,-0.2806415,-0.1632025,-0.22137304,-0.13551536,-0.35536125,0.27732164,-0.6414192,3.134747,0.010261929,446.97424,2.9007232,0.32779676,0.39860836,0.14812559,0.10584308,inf,inf,inf,inf,1,1,1,1,2,0,2,1,4,1,1,0
86672004,26016546,34.0337013,108.7636997,-9.282471,5.4574566,-2.7796466,-0.08098992,-0.3500504,0.0,-1.4989114,-0.036706734,-0.42003098,-0.3088855,-0.1632025,-0.22137304,-0.13551536,-1.2947607,-1.3433956,0.9373883,3.136649,0.010261929,446.97424,2.9262588,0.31974697,0.39639091,0.14337799,0.10451058,inf,inf,inf,inf,1,1,1,1,2,0,2,1,4,1,1,0
86771343,26016546,34.0337013,108.7636997,-9.44465,5.4588623,-2.8046842,-0.08098992,-0.3500504,0.0,-1.5904135,-0.024995299,-0.41980314,-0.30480775,-0.1632025,-0.22137304,-0.13551536,0.32394052,2.065383,-0.9256509,3.1384928,0.010261929,446.97424,2.9512963,0.32888645,0.39818236,0.1484027,0.10564691,inf,inf,inf,inf,1,1,1,1,2,0,2,1,4,1,1,0
86875644,26016546,34.0337013,108.7636997,-9.627428,5.4614973,-2.8318214,-0.08098992,-0.3500504,0.0,-1.7325628,-0.019681152,-0.422315,-0.30485663,-0.1632025,-0.22137304,-0.13551536,-0.70292443,1.2354641,-1.6129651,3.1394215,0.010261929,446.97424,2.9784336,0.32299978,0.39989263,0.14629216,0.10544237,inf,inf,inf,inf,1,1,1,1,2,0,2,1,4,1,1,0
86974984,26016546,34.0337013,108.7636997,-9.819871,5.469537,-2.8560872,-0.08098992,-0.3500504,0.0,-1.8793439,-0.020390855,-0.42904255,-0.30706593,-0.1632025,-0.22137304,-0.13551536,-2.394675,1.1164854,0.82133263,3.138702,0.010261929,446.97424,3.0026994,0.33243194,0.40172932,0.15098272,0.10653722,inf,inf,inf,inf,1,1,1,1,2,0,2,1,4,1,1,0
87074468,26016546,34.0337013,108.7636997,-10.030465,5.4733944,-2.878831,-0.08098992,-0.3500504,0.0,-2.0274444,-0.021491054,-0.415216,-0.28772572,-0.1632025,-0.22137304,-0.13551536,-2.210765,0.41935036,1.6885201,3.140227,0.010261929,446.97424,3.025443,0.32283697,0.39862293,0.14483795,0.10470585,inf,inf,inf,inf,1,1,1,1,2,0,2,1,4,1,1,0
87173656,26016546,34.0337013,108.7636997,-10.26271,5.473266,-2.8969138,-0.08098992,-0.3500504,0.0,-2.1228657,-0.023950446,-0.40469357,-0.26930544,-0.1632025,-0.22137304,-0.13551536,-0.4095744,-0.24727345,-1.0098037,-3.1412554,0.010261929,446.97424,3.043526,0.3321384,0.40042603,0.14960642,0.10579742,inf,inf,inf,inf,1,1,1,1,2,0,2,1,4,1,1,0
87272994,26016546,34.0337013,108.7636997,-10.49544,5.4699607,-2.9183927,-0.08098992,-0.3500504,0.0,-2.1502845,-0.03010245,-0.40181947,-0.26385966,-0.1632025,-0.22137304,-0.13551536,-0.45223996,-0.40984622,0.30511212,-3.140716,0.010261929,446.97424,3.0650048,0.32378942,0.398133,0.14471938,0.10444201,inf,inf,inf,inf,1,1,1,1,2,0,2,1,4,1,1,0
87377298,26016546,34.0337013,108.7636997,-10.7327795,5.4617496,-2.9509866,-0.08098992,-0.3500504,0.0,-2.0807462,-0.026917024,-0.41662842,-0.28402895,-0.1632025,-0.22137304,-0.13551536,2.199344,2.74582,-1.2765632,-3.1404488,0.010261929,446.97424,3.0975988,0.3330962,0.39991063,0.14944443,0.10552537,inf,inf,inf,inf,1,1,1,1,2,0,2,1,4,1,1,0
87476636,26016546,34.0337013,108.7636997,-10.946478,5.4550424,-2.981876,-0.08098992,-0.3500504,0.0,-1.9412344,-0.045574863,-0.4291676,-0.3000276,-0.1632025,-0.22137304,-0.13551536,-0.0847876,1.1425148,1.1896127,-3.1384957,0.010261929,446.97424,3.128488,0.32339153,0.39686674,0.14320919,0.10372948,inf,inf,inf,inf,1,1,1,1,2,0,2,1,4,1,1,0
87575973,26016546,34.0337013,108.7636997,-11.149476,5.4538198,-3.0123825,-0.08098992,-0.3500504,0.0,-1.7918622,-0.04050107,-0.43066663,-0.30289647,-0.1632025,-0.22137304,-0.13551536,2.817861,2.2905338,-0.8808795,-3.133341,0.010261929,446.97424,3.1589947,0.33256316,0.39860368,0.14822428,0.1048163,inf,inf,inf,inf,1,1,1,1,2,0,2,1,4,1,1,0
87675311,26016546,34.0337013,108.7636997,-11.332681,5.4499536,-3.0419536,-0.08098992,-0.3500504,0.0,-1.6514629,-0.050881647,-0.34872723,-0.22595316,-0.1632025,-0.22137304,-0.13551536,2.4304564,0.5489237,1.5441043,-3.1287613,0.010261929,446.97424,3.1885657,0.3244072,0.39907414,0.14390287,0.103877045,inf,inf,inf,inf,1,1,1,1,2,0,2,1,4,1,1,0
87774648,26016546,34.0337013,108.7636997,-11.496383,5.4431252,-3.071721,-0.08098992,-0.3500504,0.0,-1.5302378,-0.049923547,-0.32274276,-0.21067294,-0.1632025,-0.22137304,-0.13551536,1.6187102,2.3948302,-1.8491925,-3.127614,0.010261929,446.97424,3.2183332,0.33362842,0.40083423,0.14852594,0.104917005,inf,inf,inf,inf,1,1,1,1,2,0,2,1,4,1,1,0
87874098,26016546,34.0337013,108.7636997,-11.654168,5.437513,-3.099581,-0.08098992,-0.3500504,0.0,-1.4885713,-0.07328697,-0.3086172,-0.20525044,-0.1632025,-0.22137304,-0.13551536,-0.28291905,-2.439056,0.24950942,-3.12672,0.010261929,446.97424,3.2461932,0.32447928,0.3981081,0.14278942,0.10331329,inf,inf,inf,inf,1,1,1,1,2,0,2,1,4,1,1,0
87973325,26016546,34.0337013,108.7636997,-11.817027,5.43478,-3.1257813,-0.08098992,-0.3500504,0.0,-1.5359432,-0.06958054,-0.3234438,-0.225649,-0.1632025,-0.22137304,-0.13551536,-1.5823632,-1.2878023,1.4077195,-3.1278646,0.010261929,446.97424,3.2723935,0.33361235,0.39983183,0.14745592,0.10437106,inf,inf,inf,inf,1,1,1,1,2,0,2,1,4,1,1,0
88072661,26016546,34.0337013,108.7636997,-11.98885,5.432767,-3.1520252,-0.08098992,-0.3500504,0.0,-1.6379167,-0.06929956,-0.34414446,-0.2497603,-0.1632025,-0.22137304,-0.13551536,-1.2276183,-1.7348884,-0.5272447,-3.129589,0.010261929,446.97424,3.2986374,0.32476294,0.3973174,0.14250849,0.10294411,inf,inf,inf,inf,1,1,1,1,2,0,2,1,4,1,1,0
88167032,26016546,34.0337013,108.7636997,-12.167516,5.433085,-3.1781435,-0.08098992,-0.3500504,0.0,-1.7432817,-0.07360129,-0.36001492,-0.26691473,-0.1632025,-0.22137304,-0.13551536,-0.62830204,0.87540567,1.5889015,-3.132692,0.010261929,446.97424,3.3247557,0.33293056,0.4009254,0.1467099,0.10413782,inf,inf,inf,inf,1,1,1,1,2,0,2,1,4,1,1,0
88276303,26016546,34.0337013,108.7636997,-12.3821745,5.4321475,-3.2056074,-0.08098992,-0.3500504,0.0,-1.879824,-0.07009618,-0.35364538,-0.25949362,-0.1632025,-0.22137304,-0.13551536,-0.29454985,0.30749065,-0.93260235,-3.1340673,0.010261929,446.97424,3.3522196,0.32425344,0.39859363,0.14150554,0.10260047,inf,inf,inf,inf,1,1,1,1,2,0,2,1,4,1,1,0
88375646,26016546,34.0337013,108.7636997,-12.584586,5.4314585,-3.2289217,-0.08098992,-0.3500504,0.0,-1.9775872,-0.07868771,-0.32822177,-0.23357366,-0.1632025,-0.22137304,-0.13551536,-2.5348225,-0.54304296,1.6811333,-3.1343894,0.010261929,446.97424,3.3755338,0.3332505,0.40026927,0.14639992,0.10366498,inf,inf,inf,inf,1,1,1,1,2,0,2,1,4,1,1,0
88474978,26016546,34.0337013,108.7636997,-12.783007,5.4295654,-3.2532494,-0.08098992,-0.3500504,0.0,-1.9871509,-0.076328814,-0.32667023,-0.23400596,-0.1632025,-0.22137304,-0.13551536,0.6389299,-0.66475123,-0.7107454,-3.1335614,0.010261929,446.97424,3.3998616,0.3237551,0.39730227,0.14068362,0.101995684,inf,inf,inf,inf,1,1,1,1,2,0,2,1,4,1,1,0
88574315,26016546,34.0337013,108.7636997,-12.967575,5.4278984,-3.2815347,-0.08098992,-0.3500504,0.0,-1.939696,-0.07528831,-0.3296327,-0.24225435,-0.1632025,-0.22137304,-0.13551536,1.2199053,1.2485998,0.56064385,-3.1325204,0.010261929,446.97424,3.4281468,0.33264995,0.3989432,0.14524798,0.103045546,inf,inf,inf,inf,1,1,1,1,2,0,2,1,4,1,1,0
88673727,26016546,34.0337013,108.7636997,-13.148363,5.424965,-3.3106534,-0.08098992,-0.3500504,0.0,-1.8453178,-0.08676933,-0.3452476,-0.26261023,-0.1632025,-0.22137304,-0.13551536,-0.018111538,-1.2864629,-0.7885092,-3.1293855,0.010261929,446.97424,3.4572656,0.3231699,0.39601818,0.13979328,0.10142347,inf,inf,inf,inf,1,1,1,1,2,0,2,1,4,1,1,0
88772991,26016546,34.0337013,108.7636997,-13.32035,5.4221454,-3.3444264,-0.08098992,-0.3500504,0.0,-1.6698681,-0.07882381,-0.3489812,-0.2739037,-0.1632025,-0.22137304,-0.13551536,1.2905548,-0.38902497,1.0162894,-3.1260557,0.010261929,446.97424,3.4910386,0.33197293,0.4002094,0.14446981,0.10276396,inf,inf,inf,inf,1,1,1,1,2,0,2,1,4,1,1,0
88872329,26016546,34.0337013,108.7636997,-13.474177,5.4174395,-3.3795338,-0.08098992,-0.3500504,0.0,-1.4652424,-0.08246956,-0.35345837,-0.2859275,-0.1632025,-0.22137304,-0.13551536,4.563475,0.93919814,-1.1741353,-3.1232243,0.010261929,446.97424,3.526146,0.32400388,0.3982807,0.14085388,0.10173076,inf,inf,inf,inf,1,1,1,1,2,0,2,1,4,1,1,0
88971666,26016546,34.0337013,108.7636997,-13.610216,5.4115906,-3.4185283,-0.08098992,-0.3500504,0.0,-1.2865497,-0.08144056,-0.33667928,-0.2800835,-0.1632025,-0.22137304,-0.13551536,1.0418949,0.06006967,0.26498163,-3.1223722,0.010261929,446.97424,3.5651405,0.3328967,0.39989313,0.14565341,0.102762476,inf,inf,inf,inf,1,1,1,1,2,0,2,1,4,1,1,0
89071010,26016546,34.0337013,108.7636997,-13.722317,5.407261,-3.4507716,-0.08098992,-0.3500504,0.0,-1.0361991,-0.08101698,-0.31797975,-0.26598546,-0.1632025,-0.22137304,-0.13551536,0.031568788,-1.2552828,1.1599166,-3.1237948,0.010261929,446.97424,3.5973837,0.32415128,0.39751112,0.14115588,0.10144928,inf,inf,inf,inf,1,1,1,1,2,0,2,1,4,1,1,0
89170341,26016546,34.0337013,108.7636997,-13.806898,5.4112687,-3.4770703,-0.08098992,-0.3500504,0.0,-0.8687438,-0.07975665,-0.31018645,-0.25766096,-0.1632025,-0.22137304,-0.13551536,2.8090236,-0.8147181,-1.0768056,-3.1228962,0.010261929,446.97424,3.6236825,0.33304513,0.39910117,0.14595108,0.10246608,inf,inf,inf,inf,1,1,1,1,2,0,2,1,4,1,1,0
89274645,26016546,34.0337013,108.7636997,-13.885049,5.4172,-3.501353,-0.08098992,-0.3500504,0.0,-0.7199164,-0.049998783,-0.29584447,-0.24085759,-0.1632025,-0.22137304,-0.13551536,2.1786704,-0.55169487,-0.19251227,-3.1231444,0.010261929,446.97424,3.6479652,0.32342756,0.39618114,0.14055696,0.10086674,inf,inf,inf,inf,1,1,1,1,2,0,2,1,4,1,1,0
89373984,26016546,34.0337013,108.7636997,-13.955574,5.432096,-3.5181441,-0.08098992,-0.3500504,0.0,-0.6613157,0.0043805335,-0.285661,-0.22415249,-0.1632025,-0.22137304,-0.13551536,1.123882,2.2718093,0.09776857,-3.1230853,0.010261929,446.97424,3.6647563,0.33222824,0.40034077,0.14536783,0.10218764,inf,inf,inf,inf,1,1,1,1,2,0,2,1,4,1,1,0
89473367,26016546,34.0337013,108.7636997,-14.021257,5.449329,-3.5337803,-0.08098992,-0.3500504,0.0,-0.6776943,0.08931764,-0.2897532,-0.22170894,-0.1632025,-0.22137304,-0.13551536,-1.4510207,1.8278023,0.11711944,-3.1210008,0.010261929,446.97424,3.6803925,0.32263258,0.39743158,0.14017038,0.10063154,inf,inf,inf,inf,1,1,1,1,2,0,2,1,4,1,1,0
89567692,26016546,34.0337013,108.7636997,-14.085063,5.4696026,-3.5501854,-0.08098992,-0.3500504,0.0,-0.7568996,0.20243467,-0.30451873,-0.2314319,-0.1632025,-0.22137304,-0.13551536,-1.6906974,0.9586837,-0.4685513,-3.1169064,0.010261929,446.97424,3.6967976,0.3304601,0.3983332,0.14444196,0.10151485,inf,inf,inf,inf,1,1,1,1,2,0,2,1,4,1,1,0
89676963,26016546,34.0337013,108.7636997,-14.170835,5.5123534,-3.5700612,-0.08098992,-0.3500504,0.0,-0.87983125,0.37682664,-0.33211038,-0.2525033,-0.1632025,-0.22137304,-0.13551536,-1.7000359,3.1212442,1.808494,-3.1174114,0.010261929,446.97424,3.7166734,0.32336536,0.39714974,0.14117414,0.10069711,inf,inf,inf,inf,1,1,1,1,2,0,2,1,4,1,1,0
89776300,26016546,34.0337013,108.7636997,-14.260411,5.5757475,-3.590643,-0.08098992,-0.3500504,0.0,-0.9999008,0.52825177,-0.34133345,-0.25677088,-0.1632025,-0.22137304,-0.13551536,-0.63529557,0.5990838,-0.42490143,-3.129013,0.010261929,446.97424,3.737255,0.33220065,0.39872006,0.14610939,0.1017173,inf,inf,inf,inf,1,1,1,1,2,0,2,1,4,1,1,0
89875651,26016546,34.0337013,108.7636997,-14.361668,5.6501956,-3.609836,-0.08098992,-0.3500504,0.0,-1.1081209,0.6436042,-0.3250231,-0.23613314,-0.1632025,-0.22137304,-0.13551536,0.20257746,0.9282844,-1.1133227,-3.1374092,0.010261929,446.97424,3.7564483,0.3226832,0.39587104,0.14059772,0.10015163,inf,inf,inf,inf,1,1,1,1,2,0,2,1,4,1,1,0
89974975,26016546,34.0337013,108.7636997,-14.467185,5.733461,-3.6290944,-0.08098992,-0.3500504,0.0,-1.1595056,0.7083778,-0.3203152,-0.22803436,-0.1632025,-0.22137304,-0.13551536,-0.64950484,1.8420918,0.7286725,3.1400986,0.010261929,446.97424,3.7757065,0.3314425,0.39741224,0.14522779,0.10115445,inf,inf,inf,inf,1,1,1,1,2,0,2,1,4,1,1,0
90074312,26016546,34.0337013,108.7636997,-14.576135,5.8126445,-3.6461396,-0.08098992,-0.3500504,0.0,-1.1981922,0.6821748,-0.32752928,-0.22975151,-0.1632025,-0.22137304,-0.13551536,-0.14881669,-2.0270462,0.32466483,3.1415129,0.010261929,446.97424,3.7927518,0.32194504,0.39460945,0.1397593,0.09963751,inf,inf,inf,inf,1,1,1,1,2,0,2,1,4,1,1,0
90173650,26016546,34.0337013,108.7636997,-14.683681,5.8795347,-3.6639516,-0.08098992,-0.3500504,0.0,-1.1781429,0.58381045,-0.35988042,-0.25642818,-0.1632025,-0.22137304,-0.13551536,0.74261445,-1.171171,-1.4899422,3.1415777,0.010261929,446.97424,3.8105638,0.33062735,0.39869344,0.14437601,0.10094471,inf,inf,inf,inf,1,1,1,1,2,0,2,1,4,1,1,0
90273055,26016546,34.0337013,108.7636997,-14.781499,5.930794,-3.6838288,-0.08098992,-0.3500504,0.0,-1.1086044,0.44402048,-0.38823265,-0.27834406,-0.1632025,-0.22137304,-0.13551536,-0.51342183,-4.0559273,-0.2720521,-3.1350074,0.010261929,446.97424,3.830441,0.32119042,0.3958971,0.13910693,0.099455886,inf,inf,inf,inf,1,1,1,1,2,0,2,1,4,1,1,0
90372326,26016546,34.0337013,108.7636997,-14.859641,5.959479,-3.7052813,-0.08098992,-0.3500504,0.0,-0.9936691,0.2632375,-0.39555317,-0.28004614,-0.1632025,-0.22137304,-0.13551536,2.6334176,-2.4102473,-1.1716809,-3.124921,0.010261929,446.97424,3.8518934,0.32981426,0.39742437,0.1438989,0.10048421,inf,inf,inf,inf,1,1,1,1,2,0,2,1,4,1,1,0
90471662,26016546,34.0337013,108.7636997,-14.928157,5.9728065,-3.7267296,-0.08098992,-0.3500504,0.0,-0.8153493,0.098240644,-0.40154904,-0.2802243,-0.1632025,-0.22137304,-0.13551536,2.9449337,-2.2698379,-0.26424873,-3.114728,0.010261929,446.97424,3.8733418,0.32042545,0.3946722,0.13868462,0.09900915,inf,inf,inf,inf,1,1,1,1,2,0,2,1,4,1,1,0
90571159,26016546,34.0337013,108.7636997,-14.974542,5.9783583,-3.746394,-0.08098992,-0.3500504,0.0,-0.6194003,-0.017855996,-0.39745632,-0.26876876,-0.1632025,-0.22137304,-0.13551536,1.3110245,1.4950018,0.65389806,-3.1072028,0.010261929,446.97424,3.893006,0.32899553,0.39617562,0.14341037,0.10002465,inf,inf,inf,inf,1,1,1,1,2,0,2,1,4,1,1,0
90670339,26016546,34.0337013,108.7636997,-15.00747,5.972205,-3.7680733,-0.08098992,-0.3500504,0.0,-0.4177522,-0.10526774,-0.38297254,-0.251143,-0.1632025,-0.22137304,-0.13551536,3.7699285,-0.5091311,-1.076324,-3.1098263,0.010261929,446.97424,3.9146855,0.32173052,0.39471534,0.14071815,0.09930507,inf,inf,inf,inf,1,1,1,1,2,0,2,1,4,1,1,0
90769725,26016546,34.0337013,108.7636997,-15.024733,5.9589076,-3.7899544,-0.08098992,-0.3500504,0.0,-0.23973101,-0.15911157,-0.35012397,-0.21783704,-0.1632025,-0.22137304,-0.13551536,2.9915316,0.0132217435,-0.9320475,-3.113915,0.010261929,446.97424,3.9365666,0.33048934,0.3962124,0.1455474,0.10029941,inf,inf,inf,inf,1,1,1,1,2,0,2,1,4,1,1,0
90873979,26016546,34.0337013,108.7636997,-15.034947,5.9430847,-3.8105326,-0.08098992,-0.3500504,0.0,-0.120667756,-0.16101398,-0.33619404,-0.20255838,-0.1632025,-0.22137304,-0.13551536,1.5803198,-0.26621863,0.5352955,-3.1179743,0.010261929,446.97424,3.9571447,0.32095358,0.3959858,0.1400697,0.09909837,inf,inf,inf,inf,1,1,1,1,2,0,2,1,4,1,1,0
90973317,26016546,34.0337013,108.7636997,-15.047318,5.9333944,-3.822308,-0.08098992,-0.3500504,0.0,-0.06359025,-0.15709843,-0.33408803,-0.1934283,-0.1632025,-0.22137304,-0.13551536,-0.67149055,-3.7006073,0.10632098,-3.1216588,0.010261929,446.97424,3.9689202,0.32963628,0.3974935,0.14482792,0.10012511,inf,inf,inf,inf,1,1,1,1,2,0,2,1,4,1,1,0
91072692,26016546,34.0337013,108.7636997,-15.058782,5.9240904,-3.833056,-0.08098992,-0.3500504,0.0,-0.09352899,-0.12908281,-0.33118862,-0.18374729,-0.1632025,-0.22137304,-0.13551536,1.0178362,1.8801377,-0.49230012,-3.1251526,0.010261929,446.97424,3.9796681,0.3225284,0.39622074,0.14236735,0.09953603,inf,inf,inf,inf,1,1,1,1,2,0,2,1,4,1,1,0
91171992,26016546,34.0337013,108.7636997,-15.078754,5.9178586,-3.842413,-0.08098992,-0.3500504,0.0,-0.18746759,-0.1243448,-0.29821718,-0.14467017,-0.1632025,-0.22137304,-0.13551536,-1.8094956,-1.4047118,1.4352185,-3.1283343,0.010261929,446.97424,3.989025,0.33142924,0.3977188,0.14711522,0.10054385,inf,inf,inf,inf,1,1,1,1,2,0,2,1,4,1,1,0
91271365,26016546,34.0337013,108.7636997,-15.10994,5.911019,-3.8467886,-0.08098992,-0.3500504,0.0,-0.30827922,-0.10899734,-0.19886918,-0.040995732,-0.1632025,-0.22137304,-0.13551536,-2.4091659,0.56675124,2.4709609,-3.1324248,0.010261929,446.97424,3.9934008,0.32492888,0.39686775,0.14490418,0.10015426,inf,inf,inf,inf,1,1,1,1,2,0,2,1,4,1,1,0
91370776,26016546,34.0337013,108.7636997,-15.155632,5.906335,-3.8382764,-0.08098992,-0.3500504,0.0,-0.41182825,-0.1047916,-0.044143546,0.11756997,-0.1632025,-0.22137304,-0.13551536,-0.62014455,1.9611582,0.8675055,-3.1369917,0.010261929,446.97424,3.9848886,0.33411428,0.39837858,0.14934656,0.101114266,inf,inf,inf,inf,1,1,1,1,2,0,2,1,4,1,1,0
91470002,26016546,34.0337013,108.7636997,-15.214627,5.89919,-3.8138537,-0.08098992,-0.3500504,0.0,-0.56076425,-0.1034603,0.092681155,0.2577869,-0.1632025,-0.22137304,-0.13551536,-0.26489016,0.7162765,-0.2192263,-3.1393762,0.010261929,446.97424,3.960466,0.32391796,0.3980598,0.14248563,0.09980173,inf,inf,inf,inf,1,1,1,1,2,0,2,1,4,1,1,0
91569365,26016546,34.0337013,108.7636997,-15.29193,5.889653,-3.7809267,-0.08098992,-0.3500504,0.0,-0.71023625,-0.11067586,0.12994331,0.2984303,-0.1632025,-0.22137304,-0.13551536,-1.9106497,-1.5717049,0.17854498,-3.1406243,0.010261929,446.97424,3.9275389,0.33293182,0.39954895,0.14633898,0.1007407,inf,inf,inf,inf,1,1,1,1,2,0,2,1,4,1,1,0
91673649,26016546,34.0337013,108.7636997,-15.387878,5.877809,-3.7471807,-0.08098992,-0.3500504,0.0,-0.8766078,-0.10675946,0.11644657,0.2873971,-0.1632025,-0.22137304,-0.13551536,-2.2666643,-0.7760143,0.86929774,-3.1413274,0.010261929,446.97424,3.8937929,0.32283658,0.39665735,0.1400156,0.099171534,inf,inf,inf,inf,1,1,1,1,2,0,2,1,4,1,1,0
91772985,26016546,34.0337013,108.7636997,-15.497767,5.861391,-3.7177222,-0.08098992,-0.3500504,0.0,-0.9629174,-0.1046844,0.074337095,0.24755248,-0.1632025,-0.22137304,-0.13551536,-2.2050548,-0.7725372,0.5872467,3.140755,0.010261929,446.97424,3.8643343,0.33169293,0.39811474,0.14459182,0.10014131,inf,inf,inf,inf,1,1,1,1,2,0,2,1,4,1,1,0
91872323,26016546,34.0337013,108.7636997,-15.615145,5.847035,-3.6935654,-0.08098992,-0.3500504,0.0,-1.025574,-0.10806618,0.06270017,0.2343055,-0.1632025,-0.22137304,-0.13551536,-0.108938836,-1.8248128,-1.6549447,-3.141316,0.010261929,446.97424,3.8401775,0.32175344,0.3952889,0.13938507,0.098659486,inf,inf,inf,inf,1,1,1,1,2,0,2,1,4,1,1,0
91976629,26016546,34.0337013,108.7636997,-15.749463,5.8378205,-3.6744401,-0.08098992,-0.3500504,0.0,-1.0227189,-0.10208037,0.066915765,0.23206449,-0.1632025,-0.22137304,-0.13551536,-0.76030904,-2.1061044,-0.98227906,-3.1397758,0.010261929,446.97424,3.8210523,0.33052403,0.39673,0.14418556,0.09964577,inf,inf,inf,inf,1,1,1,1,2,0,2,1,4,1,1,0
92075966,26016546,34.0337013,108.7636997,-15.871161,5.8278418,-3.6581993,-0.08098992,-0.3500504,0.0,-1.0022993,-0.09381689,0.07329332,0.23030917,-0.1632025,-0.22137304,-0.13551536,-0.47328004,-0.18553196,1.4875535,-3.1369429,0.010261929,446.97424,3.8048115,0.32073194,0.39649773,0.1388039,0.09847429,inf,inf,inf,inf,1,1,1,1,2,0,2,1,4,1,1,0
92175505,26016546,34.0337013,108.7636997,-15.989996,5.8154006,-3.6447039,-0.08098992,-0.3500504,0.0,-0.9398764,-0.08813896,0.06636773,0.21295579,-0.1632025,-0.22137304,-0.13551536,1.8036813,0.8165257,-1.9933829,-3.1333485,0.010261929,446.97424,3.791316,0.32942632,0.39795226,0.14362468,0.09947461,inf,inf,inf,inf,1,1,1,1,2,0,2,1,4,1,1,0
92269672,26016546,34.0337013,108.7636997,-16.088348,5.8047633,-3.632722,-0.08098992,-0.3500504,0.0,-0.85554105,-0.08716211,0.06530322,0.20377326,-0.1632025,-0.22137304,-0.13551536,2.230151,1.0975888,-0.9642369,-3.1322253,0.010261929,446.97424,3.779334,0.32085556,0.39578858,0.14005421,0.0985938,inf,inf,inf,inf,1,1,1,1,2,0,2,1,4,1,1,0
92369009,26016546,34.0337013,108.7636997,-16.188002,5.7972245,-3.6213481,-0.08098992,-0.3500504,0.0,-0.8518546,-0.08868455,0.064287975,0.19329278,-0.1632025,-0.22137304,-0.13551536,0.24216793,-0.90141463,-0.017763091,-3.1304066,0.010261929,446.97424,3.7679603,0.32965708,0.39723563,0.14473572,0.09957509,inf,inf,inf,inf,1,1,1,1,2,0,2,1,4,1,1,0
92478286,26016546,34.0337013,108.7636997,-16.293554,5.7903786,-3.6110158,-0.08098992,-0.3500504,0.0,-0.862594,-0.08268041,0.04967155,0.16793461,-0.1632025,-0.22137304,-0.13551536,-0.576499,-0.45795724,0.061240334,-3.130126,0.010261929,446.97424,3.757628,0.3206178,0.3951247,0.13977633,0.09828082,inf,inf,inf,inf,1,1,1,1,2,0,2,1,4,1,1,0
92577618,26016546,34.0337013,108.7636997,-16.391708,5.7905564,-3.6083941,-0.08098992,-0.3500504,0.0,-0.86844975,-0.07923138,0.022816075,0.12833194,-0.1632025,-0.22137304,-0.13551536,-1.3860291,-0.45904452,1.058737,-3.1321712,0.010261929,446.97424,3.7550063,0.32938707,0.39655837,0.14446786,0.09926529,inf,inf,inf,inf,1,1,1,1,2,0,2,1,4,1,1,0
92676956,26016546,34.0337013,108.7636997,-16.492744,5.7880054,-3.6113183,-0.08098992,-0.3500504,0.0,-0.8914118,-0.078165755,-0.025815738,0.06684954,-0.1632025,-0.22137304,-0.13551536,-1.344353,-2.5748212,0.16608833,-3.1335287,0.010261929,446.97424,3.7579305,0.31970736,0.39384478,0.13911992,0.09785559,inf,inf,inf,inf,1,1,1,1,2,0,2,1,4,1,1,0
92776289,26016546,34.0337013,108.7636997,-16.601877,5.782583,-3.6191692,-0.08098992,-0.3500504,0.0,-0.8770632,-0.06834338,-0.04621391,0.033553034,-0.1632025,-0.22137304,-0.13551536,2.750936,0.46636158,-1.2469447,-3.1338925,0.010261929,446.97424,3.7657814,0.32840934,0.39780194,0.14391088,0.0991193,inf,inf,inf,inf,1,1,1,1,2,0,2,1,4,1,1,0
92875631,26016546,34.0337013,108.7636997,-16.700626,5.77629,-3.6237335,-0.08098992,-0.3500504,0.0,-0.83851445,-0.07200867,-0.04562985,0.026777994,-0.1632025,-0.22137304,-0.13551536,-1.1850383,0.3234264,1.2117685,-3.134826,0.010261929,446.97424,3.7703457,0.31867707,0.39506507,0.13870442,0.09771711,inf,inf,inf,inf,1,1,1,1,2,0,2,1,4,1,1,0
92975044,26016546,34.0337013,108.7636997,-16.787836,5.770327,-3.6276295,-0.08098992,-0.3500504,0.0,-0.7967627,-0.067895845,-0.023417264,0.042563453,-0.1632025,-0.22137304,-0.13551536,0.36479223,0.35604304,1.159975,-3.1337254,0.010261929,446.97424,3.7742417,0.32731462,0.39646795,0.14335327,0.09870182,inf,inf,inf,inf,1,1,1,1,2,0,2,1,4,1,1,0
93074306,26016546,34.0337013,108.7636997,-16.868742,5.763803,-3.6274087,-0.08098992,-0.3500504,0.0,-0.7552924,-0.07523026,-0.013356021,0.04885154,-0.1632025,-0.22137304,-0.13551536,0.907673,0.8861403,-0.58294326,-3.133648,0.010261929,446.97424,3.774021,0.3175793,0.393783,0.13802388,0.09731794,inf,inf,inf,inf,1,1,1,1,2,0,2,1,4,1,1,0
93173644,26016546,34.0337013,108.7636997,-16.94927,5.759679,-3.6235485,-0.08098992,-0.3500504,0.0,-0.744168,-0.059422795,-0.009796211,0.051549308,-0.1632025,-0.22137304,-0.13551536,0.19935909,0.722875,0.9584735,-3.1338372,0.010261929,446.97424,3.7701607,0.32614797,0.395166,0.14249927,0.098296374,inf,inf,inf,inf,1,1,1,1,2,0,2,1,4,1,1,0
93277973,26016546,34.0337013,108.7636997,-17.031612,5.7587643,-3.619047,-0.08098992,-0.3500504,0.0,-0.7271493,-0.0012454495,-0.024413379,0.038093474,-0.1632025,-0.22137304,-0.13551536,0.07503337,-0.33946508,-0.7512441,-3.1351652,0.010261929,446.97424,3.765659,0.31643918,0.39253023,0.13727334,0.096942574,inf,inf,inf,inf,1,1,1,1,2,0,2,1,4,1,1,0
93377306,26016546,34.0337013,108.7636997,-17.116247,5.7663794,-3.6138983,-0.08098992,-0.3500504,0.0,-0.70950663,0.10217824,-0.011267784,0.052478876,-0.1632025,-0.22137304,-0.13551536,0.8257906,2.3986225,1.637105,-3.1388078,0.010261929,446.97424,3.7605104,0.3249441,0.39642176,0.14190511,0.098199226,inf,inf,inf,inf,1,1,1,1,2,0,2,1,4,1,1,0
93476623,26016546,34.0337013,108.7636997,-17.191101,5.7846212,-3.6087198,-0.08098992,-0.3500504,0.0,-0.6442184,0.21028435,-0.016668495,0.047491368,-0.1632025,-0.22137304,-0.13551536,0.6797678,0.49259692,0.26232415,3.1365528,0.010261929,446.97424,3.755332,0.31532243,0.3937818,0.13701671,0.096864216,inf,inf,inf,inf,1,1,1,1,2,0,2,1,4,1,1,0
93575973,26016546,34.0337013,108.7636997,-17.248997,5.8162894,-3.6022265,-0.08098992,-0.3500504,0.0,-0.5841516,0.3429374,-0.0067522135,0.058991045,-0.1632025,-0.22137304,-0.13551536,-0.59163266,1.5751674,0.5160162,3.1328437,0.010261929,446.97424,3.7488387,0.32378337,0.39517283,0.14156967,0.09785365,inf,inf,inf,inf,1,1,1,1,2,0,2,1,4,1,1,0
93675298,26016546,34.0337013,108.7636997,-17.299135,5.860805,-3.5920887,-0.08098992,-0.3500504,0.0,-0.46960932,0.4515987,-0.0021937934,0.067503065,-0.1632025,-0.22137304,-0.13551536,1.7921511,-1.0527039,-1.2679137,3.139004,0.010261929,446.97424,3.7387009,0.31422806,0.39258608,0.13660854,0.096534945,inf,inf,inf,inf,1,1,1,1,2,0,2,1,4,1,1,0
93774669,26016546,34.0337013,108.7636997,-17.344091,5.9203725,-3.578883,-0.08098992,-0.3500504,0.0,-0.4168513,0.52160066,0.0137067,0.08881791,-0.1632025,-0.22137304,-0.13551536,0.13608068,3.0460544,1.1315993,-3.1407423,0.010261929,446.97424,3.725495,0.322645,0.3939521,0.14117874,0.09751584,inf,inf,inf,inf,1,1,1,1,2,0,2,1,4,1,1,0
93873986,26016546,34.0337013,108.7636997,-17.3827,5.9806795,-3.5638514,-0.08098992,-0.3500504,0.0,-0.39031637,0.50892115,-0.002500813,0.07954686,-0.1632025,-0.22137304,-0.13551536,-2.3420217,-1.552074,1.29365,3.14024,0.010261929,446.97424,3.7104635,0.31304264,0.3914081,0.13623197,0.09622344,inf,inf,inf,inf,1,1,1,1,2,0,2,1,4,1,1,0
93973311,26016546,34.0337013,108.7636997,-17.41317,6.0396533,-3.5456424,-0.08098992,-0.3500504,0.0,-0.3885695,0.4470099,-0.043050475,0.051267847,-0.1632025,-0.22137304,-0.13551536,-0.86470634,0.4345324,0.60511166,3.1344101,0.010261929,446.97424,3.6922545,0.32141697,0.395255,0.14078307,0.09748072,inf,inf,inf,inf,1,1,1,1,2,0,2,1,4,1,1,0
94072822,26016546,34.0337013,108.7636997,-17.44636,6.091559,-3.5329826,-0.08098992,-0.3500504,0.0,-0.4182305,0.39488328,-0.088784896,0.015024105,-0.1632025,-0.22137304,-0.13551536,-0.23688136,0.17012021,-2.013662,3.1300464,0.010261929,446.97424,3.6795948,0.31176838,0.39268768,0.13592817,0.09619471,inf,inf,inf,inf,1,1,1,1,2,0,2,1,4,1,1,0
94171995,26016546,34.0337013,108.7636997,-17.480125,6.139625,-3.521394,-0.08098992,-0.3500504,0.0,-0.47387284,0.31923124,-0.077853665,0.03439238,-0.1632025,-0.22137304,-0.13551536,0.9248167,0.29708943,-1.433371,3.126782,0.010261929,446.97424,3.6680062,0.32011384,0.3940428,0.14070235,0.097182564,inf,inf,inf,inf,1,1,1,1,2,0,2,1,4,1,1,0
94271325,26016546,34.0337013,108.7636997,-17.524641,6.1776376,-3.5106149,-0.08098992,-0.3500504,0.0,-0.57052743,0.2588553,-0.069592595,0.048403677,-0.1632025,-0.22137304,-0.13551536,-1.3554227,2.6299632,1.3359448,3.1214,0.010261929,446.97424,3.657227,0.310583,0.39151692,0.13583472,0.09590285,inf,inf,inf,inf,1,1,1,1,2,0,2,1,4,1,1,0
94375628,26016546,34.0337013,108.7636997,-17.583399,6.2167735,-3.5045736,-0.08098992,-0.3500504,0.0,-0.6620937,0.25855657,-0.1019782,0.01888852,-0.1632025,-0.22137304,-0.13551536,-1.7964418,0.6745856,1.0813788,3.1184924,0.010261929,446.97424,3.6511858,0.31890634,0.3928513,0.14032349,0.09688621,inf,inf,inf,inf,1,1,1,1,2,0,2,1,4,1,1,0
94474965,26016546,34.0337013,108.7636997,-17.64781,6.2521234,-3.5010984,-0.08098992,-0.3500504,0.0,-0.73248005,0.2568619,-0.11816059,0.004924785,-0.1632025,-0.22137304,-0.13551536,-2.319589,-1.9729588,1.5438334,3.1170564,0.010261929,446.97424,3.6477106,0.3093825,0.39035255,0.13542292,0.09562012,inf,inf,inf,inf,1,1,1,1,2,0,2,1,4,1,1,0
94574316,26016546,34.0337013,108.7636997,-17.711334,6.293962,-3.4971762,-0.08098992,-0.3500504,0.0,-0.774689,0.32866585,-0.12236489,0.003632125,-0.1632025,-0.22137304,-0.13551536,-0.78496414,1.7254964,0.8544292,3.1157758,0.010261929,446.97424,3.6437883,0.3176792,0.39168245,0.14033885,0.09661201,inf,inf,inf,inf,1,1,1,1,2,0,2,1,4,1,1,0
94673640,26016546,34.0337013,108.7636997,-17.776342,6.3428836,-3.495706,-0.08098992,-0.3500504,0.0,-0.75169176,0.41197962,-0.121381335,0.0049058865,-0.1632025,-0.22137304,-0.13551536,-0.0455294,0.8421888,2.0633314,3.114403,0.010261929,446.97424,3.6423182,0.30830732,0.3916713,0.13554063,0.095629886,inf,inf,inf,inf,1,1,1,1,2,0,2,1,4,1,1,0
94772978,26016546,34.0337013,108.7636997,-17.829659,6.4060173,-3.4973617,-0.08098992,-0.3500504,0.0,-0.65377575,0.50693476,-0.1288565,-0.004899114,-0.1632025,-0.22137304,-0.13551536,1.2255113,2.8807945,0.9451706,3.110824,0.010261929,446.97424,3.6439738,0.31659254,0.39302325,0.14014702,0.09662857,inf,inf,inf,inf,1,1,1,1,2,0,2,1,4,1,1,0
94872459,26016546,34.0337013,108.7636997,-17.873753,6.4747586,-3.4996467,-0.08098992,-0.3500504,0.0,-0.54396784,0.5783702,-0.13130556,-0.009804791,-0.1632025,-0.22137304,-0.13551536,1.5581404,0.1655029,-1.4726005,3.1130354,0.010261929,446.97424,3.6462588,0.30730617,0.39057198,0.13533667,0.0954037,inf,inf,inf,inf,1,1,1,1,2,0,2,1,4,1,1,0
94976620,26016546,34.0337013,108.7636997,-17.903587,6.5568423,-3.5029697,-0.08098992,-0.3500504,0.0,-0.41863084,0.6461447,-0.10883442,0.008737176,-0.1632025,-0.22137304,-0.13551536,2.6754367,-0.067397125,-1.1184094,3.123684,0.010261929,446.97424,3.649582,0.31557995,0.39190534,0.13989884,0.09639707,inf,inf,inf,inf,1,1,1,1,2,0,2,1,4,1,1,0
95075957,26016546,34.0337013,108.7636997,-17.922762,6.636699,-3.5052702,-0.08098992,-0.3500504,0.0,-0.3232242,0.6947047,-0.09190161,0.020958442,-0.1632025,-0.22137304,-0.13551536,1.4242616,0.73077023,-0.37548846,3.1312013,0.010261929,446.97424,3.6518824,0.3063085,0.38948116,0.13525477,0.09518127,inf,inf,inf,inf,1,1,1,1,2,0,2,1,4,1,1,0
95175295,26016546,34.0337013,108.7636997,-17.932348,6.716643,-3.5073771,-0.08098992,-0.3500504,0.0,-0.26749635,0.6870998,-0.092447326,0.015911102,-0.1632025,-0.22137304,-0.13551536,-0.20881537,-0.60767645,1.3933694,3.136802,0.010261929,446.97424,3.6539893,0.31457704,0.39081183,0.13974252,0.09617528,inf,inf,inf,inf,1,1,1,1,2,0,2,1,4,1,1,0
95274640,26016546,34.0337013,108.7636997,-17.945387,6.7943068,-3.5075035,-0.08098992,-0.3500504,0.0,-0.26779437,0.64126927,-0.104639955,0.0026089381,-0.1632025,-0.22137304,-0.13551536,-0.002665389,-0.69427323,0.2967445,3.140818,0.010261929,446.97424,3.6541157,0.3054046,0.38844046,0.1349905,0.09498813,inf,inf,inf,inf,1,1,1,1,2,0,2,1,4,1,1,0
95373972,26016546,34.0337013,108.7636997,-17.970238,6.8725314,-3.5061107,-0.08098992,-0.3500504,0.0,-0.3345355,0.5744962,-0.11956693,-0.011197667,-0.1632025,-0.22137304,-0.13551536,0.8557354,0.64567125,-2.0593584,-3.140117,0.010261929,446.97424,3.6527228,0.31367064,0.3922093,0.1395299,0.096242204,inf,inf,inf,inf,1,1,1,1,2,0,2,1,4,1,1,0
95473309,26016546,34.0337013,108.7636997,-18.002043,6.934798,-3.5064323,-0.08098992,-0.3500504,0.0,-0.44222656,0.43126333,-0.14556547,-0.03609274,-0.1632025,-0.22137304,-0.13551536,-1.2690676,0.13850771,-1.6408205,-3.139846,0.010261929,446.97424,3.6530445,0.30445337,0.38981918,0.13478854,0.09504477,inf,inf,inf,inf,1,1,1,1,2,0,2,1,4,1,1,0
95572645,26016546,34.0337013,108.7636997,-18.03801,6.978796,-3.5098417,-0.08098992,-0.3500504,0.0,-0.6068258,0.28326222,-0.17325181,-0.06275747,-0.1632025,-0.22137304,-0.13551536,-1.4433097,-2.2065184,-1.8670638,-3.1395807,0.010261929,446.97424,3.6564538,0.31271568,0.39115703,0.13940544,0.096036576,inf,inf,inf,inf,1,1,1,1,2,0,2,1,4,1,1,0
95672092,26016546,34.0337013,108.7636997,-18.096642,7.0063157,-3.514507,-0.08098992,-0.3500504,0.0,-0.82414037,0.12248113,-0.16900371,-0.05765294,-0.1632025,-0.22137304,-0.13551536,-1.5052408,-3.1596837,-1.5249953,-3.1391928,0.010261929,446.97424,3.6611192,0.30361283,0.38879764,0.13480008,0.09483337,inf,inf,inf,inf,1,1,1,1,2,0,2,1,4,1,1,0
95771321,26016546,34.0337013,108.7636997,-18.179207,7.0224457,-3.5162442,-0.08098992,-0.3500504,0.0,-1.0510173,0.015134192,-0.16771865,-0.053089894,-0.1632025,-0.22137304,-0.13551536,-1.9504758,1.3367224,-1.3827614,-3.135324,0.010261929,446.97424,3.6628563,0.31187946,0.3901334,0.1395175,0.09580557,inf,inf,inf,inf,1,1,1,1,2,0,2,1,4,1,1,0
95870671,26016546,34.0337013,108.7636997,-18.285294,7.02902,-3.5155628,-0.08098992,-0.3500504,0.0,-1.2682707,-0.059024528,-0.06737124,0.04874552,-0.1632025,-0.22137304,-0.13551536,-2.6972375,-0.22756682,2.3414242,-3.124389,0.010261929,446.97424,3.662175,0.30290648,0.38780358,0.13493806,0.09461001,inf,inf,inf,inf,1,1,1,1,2,0,2,1,4,1,1,0
95969998,26016546,34.0337013,108.7636997,-18.410763,7.0363145,-3.5023854,-0.08098992,-0.3500504,0.0,-1.4553808,-0.09761863,0.036083568,0.1546191,-0.1632025,-0.22137304,-0.13551536,-1.8743348,-0.5907042,1.5330303,-3.11676,0.010261929,446.97424,3.6489975,0.31117463,0.3891204,0.13965529,0.09558152,inf,inf,inf,inf,1,1,1,1,2,0,2,1,4,1,1,0
96079267,26016546,34.0337013,108.7636997,-18.570713,7.0401487,-3.483904,-0.08098992,-0.3500504,0.0,-1.5975125,-0.09467515,0.059985243,0.17781568,-0.1632025,-0.22137304,-0.13551536,-0.39358056,0.10970941,-0.5864473,-3.1115081,0.010261929,446.97424,3.630516,0.3029779,0.38741487,0.1350416,0.09454866,inf,inf,inf,inf,1,1,1,1,2,0,2,1,4,1,1,0
96168670,26016546,34.0337013,108.7636997,-18.71355,7.0463405,-3.470649,-0.08098992,-0.3500504,0.0,-1.6584196,-0.0958177,0.06305705,0.17760825,-0.1632025,-0.22137304,-0.13551536,0.6008739,-0.107904434,0.44142237,-3.108814,0.010261929,446.97424,3.6172612,0.3104163,0.3905363,0.13903569,0.09564485,inf,inf,inf,inf,1,1,1,1,2,0,2,1,4,1,1,0
96277943,26016546,34.0337013,108.7636997,-18.887594,7.051739,-3.4550595,-0.08098992,-0.3500504,0.0,-1.6328635,-0.0697893,0.040962957,0.15248728,-0.1632025,-0.22137304,-0.13551536,0.77887595,1.3531611,-0.12023137,-3.1067884,0.010261929,446.97424,3.6016717,0.30257216,0.388989,0.13518074,0.09473627,inf,inf,inf,inf,1,1,1,1,2,0,2,1,4,1,1,0
96377279,26016546,34.0337013,108.7636997,-19.031488,7.056939,-3.4434085,-0.08098992,-0.3500504,0.0,-1.5179319,-0.07373696,0.009030827,0.1180684,-0.1632025,-0.22137304,-0.13551536,1.3590639,-0.6852553,-1.0501871,-3.1042428,0.010261929,446.97424,3.5900207,0.31089798,0.39032423,0.13980362,0.09573886,inf,inf,inf,inf,1,1,1,1,2,0,2,1,4,1,1,0
96476714,26016546,34.0337013,108.7636997,-19.163528,7.06109,-3.4376202,-0.08098992,-0.3500504,0.0,-1.3211703,-0.056685716,-0.020642191,0.08366266,-0.1632025,-0.22137304,-0.13551536,1.1355522,1.961918,0.35680556,-3.1025636,0.010261929,446.97424,3.5842323,0.30182987,0.38800818,0.13495463,0.09456283,inf,inf,inf,inf,1,1,1,1,2,0,2,1,4,1,1,0
96571000,26016546,34.0337013,108.7636997,-19.270899,7.069054,-3.4381897,-0.08098992,-0.3500504,0.0,-1.0815378,-0.057775464,-0.04690373,0.050560303,-0.1632025,-0.22137304,-0.13551536,4.0740304,-0.44745946,-0.65560424,-3.0998065,0.010261929,446.97424,3.584802,0.30930242,0.38872597,0.13904996,0.095394775,inf,inf,inf,inf,1,1,1,1,2,0,2,1,4,1,1,0
96670325,26016546,34.0337013,108.7636997,-19.356005,7.076832,-3.4426134,-0.08098992,-0.3500504,0.0,-0.78155774,-0.05294297,-0.055219416,0.0333579,-0.1632025,-0.22137304,-0.13551536,2.5439277,-3.3689425,0.19845422,-3.097974,0.010261929,446.97424,3.5892255,0.30044678,0.3864529,0.13429682,0.0942155,inf,inf,inf,inf,1,1,1,1,2,0,2,1,4,1,1,0
96774631,26016546,34.0337013,108.7636997,-19.408298,7.0882373,-3.448173,-0.08098992,-0.3500504,0.0,-0.48591456,-0.046248503,-0.046733826,0.03276959,-0.1632025,-0.22137304,-0.13551536,4.358223,0.5603502,-0.75490797,-3.09813,0.010261929,446.97424,3.5947852,0.30874434,0.39018053,0.13894647,0.0954189,inf,inf,inf,inf,1,1,1,1,2,0,2,1,4,1,1,0
