timestamp,ref_timestamp,ref_lat,ref_lon,x,y,z,delta_xy[0],delta_xy[1],delta_z,vx,vy,vz,z_deriv,delta_vxy[0],delta_vxy[1],delta_vz,ax,ay,az,heading,delta_heading,ref_alt,dist_bottom,eph,epv,evh,evv,vxy_max,vz_max,hagl_min,hagl_max,xy_valid,z_valid,v_xy_valid,v_z_valid,xy_reset_counter,z_reset_counter,vxy_reset_counter,vz_reset_counter,heading_reset_counter,xy_global,z_global,dist_bottom_valid
43194118,0,0.0,0.0,0.0,0.0,-1.3533735,-4.473132e-07,4.0472244e-07,0.0,0.16803665,0.06687824,-0.4711982,-0.015319963,-9.001171e-05,8.144128e-05,0.0,0.19951952,-0.065401025,-0.12254464,-2.8666465,-0.37228525,0.0,0.18909001,0.31465977,0.4864655,0.1808686,0.112937026,inf,inf,inf,inf,0,1,0,1,1,0,1,0,2,0,0,1
43204051,0,0.0,0.0,0.0,0.0,-1.3537285,-4.473132e-07,4.0472244e-07,0.0,0.16741768,0.06629076,-0.47014916,-0.014630821,-9.001171e-05,8.144128e-05,0.0,-0.14486532,-0.017434722,0.056755427,-2.8666215,-0.37228525,0.0,0.18944502,0.31612423,0.48731557,0.18159994,0.11304287,inf,inf,inf,inf,0,1,0,1,1,0,1,0,2,0,0,1
43303384,0,0.0,0.0,0.0,0.0,-1.3519781,-4.473132e-07,4.0472244e-07,0.0,0.16312249,0.058935914,-0.4680889,-0.0109083345,-9.001171e-05,8.144128e-05,0.0,-0.7467129,-0.88254005,0.074061625,-2.8665028,-0.37228525,0.0,0.1918844,0.3310598,0.4865197,0.19043487,0.11290847,inf,inf,inf,inf,0,1,0,1,1,0,1,0,2,0,0,1
43402722,0,0.0,0.0,0.0,0.0,-1.3515502,-4.473132e-07,4.0472244e-07,0.0,0.17645434,0.061832517,-0.46730793,-0.009948833,-9.001171e-05,8.144128e-05,0.0,1.4606409,1.7145755,0.4882109,-2.866314,-0.37228525,0.0,0.19145656,0.3468074,0.48570636,0.20185435,0.112771526,inf,inf,inf,inf,0,1,0,1,1,0,1,0,2,0,0,1
43497095,0,0.0,0.0,0.0,0.0,-1.3544259,-4.473132e-07,4.0472244e-07,0.0,0.1766865,0.066414624,-0.46680948,-0.010361989,-9.001171e-05,8.144128e-05,0.0,-0.45206636,-0.28179702,-0.480837,-2.8660789,-0.37228525,0.0,0.19433224,0.36155722,0.48404434,0.21393995,0.11253427,inf,inf,inf,inf,0,1,0,1,1,0,1,0,2,0,0,1
43596429,0,0.0,0.0,0.0,0.0,-1.3556879,-4.473132e-07,4.0472244e-07,0.0,0.18088311,0.07090562,-0.4584466,-0.0035970395,-9.001171e-05,8.144128e-05,0.0,-0.691097,0.57340074,0.30260676,-2.8667643,-0.37228525,0.0,0.19559419,0.3789425,0.48323843,0.22912906,0.11242391,inf,inf,inf,inf,0,1,0,1,1,0,1,0,2,0,0,1
43695792,0,0.0,0.0,0.0,0.0,-1.3559855,-4.473132e-07,4.0472244e-07,0.0,0.19349597,0.06873261,-0.46430844,-0.010963808,-9.001171e-05,8.144128e-05,0.0,0.44188416,0.29703203,0.88134634,-2.8657017,-0.37228525,0.0,0.19589186,0.39722854,0.48244876,0.24593048,0.11232218,inf,inf,inf,inf,0,1,0,1,1,0,1,0,2,0,0,1
43795111,0,0.0,0.0,0.0,0.0,-1.3580121,-4.473132e-07,4.0472244e-07,0.0,0.20242105,0.069232136,-0.4644551,-0.014325937,-9.001171e-05,8.144128e-05,0.0,0.86475515,-0.35347688,0.3728995,-2.8656948,-0.37228525,0.0,0.19791842,0.41685894,0.48631194,0.26378423,0.11286241,inf,inf,inf,inf,0,1,0,1,1,0,1,0,2,0,0,1
43894441,0,0.0,0.0,0.0,0.0,-1.3578193,-4.473132e-07,4.0472244e-07,0.0,0.20308262,0.081736915,-0.4644131,-0.014895319,-9.001171e-05,8.144128e-05,0.0,0.23966363,2.7351441,-1.9097236,-2.8659072,-0.37228525,0.0,0.19772565,0.43761656,0.4855252,0.28255266,0.11277866,inf,inf,inf,inf,0,1,0,1,1,0,1,0,2,0,0,1
44003713,0,0.0,0.0,0.0,0.0,-1.3576814,-4.473132e-07,4.0472244e-07,0.0,0.21805045,0.08798167,-0.4658182,-0.01686038,-9.001171e-05,8.144128e-05,0.0,0.95030636,3.9371,-3.0120316,-2.8656762,-0.37228525,0.0,0.19758773,0.46239325,0.48559305,0.30419555,0.112823606,inf,inf,inf,inf,0,1,0,1,1,0,1,0,2,0,0,1
44093116,0,0.0,0.0,0.0,0.0,-1.3580539,-4.473132e-07,4.0472244e-07,0.0,0.22583155,0.07799426,-0.45122564,-0.0031797043,-9.001171e-05,8.144128e-05,0.0,-0.9685176,-1.767831,3.3289638,-2.866079,-0.37228525,0.0,0.19796026,0.4841398,0.48395535,0.32249728,0.11264194,inf,inf,inf,inf,0,1,0,1,1,0,1,0,2,0,0,1
44202392,0,0.0,0.0,0.0,0.0,-1.3604473,-4.473132e-07,4.0472244e-07,0.0,0.2331734,0.07884399,-0.45262364,-0.0076968316,-9.001171e-05,8.144128e-05,0.0,1.2962117,2.5991278,-2.86883,-2.8659794,-0.37228525,0.0,0.20035362,0.5123775,0.4840118,0.3452919,0.11271024,inf,inf,inf,inf,0,1,0,1,1,0,1,0,2,0,0,1
44296760,0,0.0,0.0,0.0,0.0,-1.3639884,-4.473132e-07,4.0472244e-07,0.0,0.2318138,0.074103974,-0.4432769,-2.461232e-05,-9.001171e-05,8.144128e-05,0.0,-0.8853285,-3.1368337,1.6170292,-2.8655734,-0.37228525,0.0,0.20389473,0.5374305,0.48702094,0.3645098,0.113167696,inf,inf,inf,inf,0,1,0,1,1,0,1,0,2,0,0,1
44396114,0,0.0,0.0,0.0,0.0,-1.3641714,-4.473132e-07,4.0472244e-07,0.0,0.25056535,0.07541815,-0.4437672,-0.0010987388,-9.001171e-05,8.144128e-05,0.0,-0.12412055,-0.8381596,1.7685517,-2.8652701,-0.37228525,0.0,0.20407772,0.5667754,0.48620024,0.38600427,0.11311583,inf,inf,inf,inf,0,1,0,1,1,0,1,0,2,0,0,1
44495485,0,0.0,0.0,0.0,0.0,-1.3643869,-4.473132e-07,4.0472244e-07,0.0,0.26294437,0.07701516,-0.44276366,-0.0014629038,-9.001171e-05,8.144128e-05,0.0,-0.07866576,-0.8507409,1.8793868,-2.8647332,-0.37228525,0.0,0.20429325,0.5986479,0.4853794,0.40820894,0.11307824,inf,inf,inf,inf,0,1,0,1,1,0,1,0,2,0,0,1
44594769,0,0.0,0.0,0.0,0.0,-1.3612076,-4.473132e-07,4.0472244e-07,0.0,0.26364648,0.08434528,-0.4432863,-0.00022457179,-9.001171e-05,8.144128e-05,0.0,-0.9905075,-0.9127743,1.1083105,-2.86453,-0.37228525,0.0,0.20111394,0.6321684,0.48460433,0.43022493,0.11305859,inf,inf,inf,inf,0,1,0,1,1,0,1,0,2,0,0,1
44704048,0,0.0,0.0,0.0,0.0,-1.358525,-4.473132e-07,4.0472244e-07,0.0,0.27826068,0.083998114,-0.4397798,0.004354396,-9.001171e-05,8.144128e-05,0.0,0.7440768,-0.8696603,-0.51292735,-2.8654418,-0.37228525,0.0,0.19843137,0.67229855,0.48467225,0.45494843,0.11316262,inf,inf,inf,inf,0,1,0,1,1,0,1,0,2,0,0,1
44793574,0,0.0,0.0,0.0,0.0,-1.3557013,-4.473132e-07,4.0472244e-07,0.0,0.2923997,0.09023445,-0.44755977,-0.0020003638,-9.001171e-05,8.144128e-05,0.0,1.2597226,0.32491437,-0.60371876,-2.8640435,-0.37228525,0.0,0.19560766,0.70643634,0.48305675,0.47502998,0.11303391,inf,inf,inf,inf,0,1,0,1,1,0,1,0,2,0,0,1
44897749,0,0.0,0.0,0.0,0.0,-1.3560858,-4.473132e-07,4.0472244e-07,0.0,0.29908141,0.092625305,-0.44112286,0.004317885,-9.001171e-05,8.144128e-05,0.0,-0.48877126,-0.475981,1.1151652,-2.8648422,-0.37228525,0.0,0.19599211,0.7475316,0.4822978,0.49788988,0.113035806,inf,inf,inf,inf,0,1,0,1,1,0,1,0,2,0,0,1
44997086,0,0.0,0.0,0.0,0.0,-1.3536342,-4.473132e-07,4.0472244e-07,0.0,0.31406447,0.09184348,-0.43688062,0.008729366,-9.001171e-05,8.144128e-05,0.0,0.42302808,0.76055646,1.5898573,-2.8650212,-0.37228525,0.0,0.19354057,0.78993297,0.4815424,0.52055395,0.113040216,inf,inf,inf,inf,0,1,0,1,1,0,1,0,2,0,0,1
45096430,0,0.0,0.0,0.0,0.0,-1.3497953,-4.473132e-07,4.0472244e-07,0.0,0.31297788,0.09723282,-0.43529192,0.010797062,-9.001171e-05,8.144128e-05,0.0,-1.379854,0.38195536,1.1414533,-2.864443,-0.37228525,0.0,0.18970168,0.8359418,0.48543558,0.54370296,0.113680206,inf,inf,inf,inf,0,1,0,1,1,0,1,0,2,0,0,1
45195761,0,0.0,0.0,0.0,0.0,-1.3470756,-4.473132e-07,4.0472244e-07,0.0,0.33167112,0.087711975,-0.4358914,0.0097223325,-9.001171e-05,8.144128e-05,0.0,1.6054825,-0.6220561,-0.03591282,-2.8643494,-0.37228525,0.0,0.18698192,0.8828281,0.48469225,0.56617546,0.113693394,inf,inf,inf,inf,0,1,0,1,1,0,1,0,2,0,0,1
45295138,0,0.0,0.0,0.0,0.0,-1.3439317,-4.473132e-07,4.0472244e-07,0.0,0.3388476,0.09795033,-0.4366725,0.009006107,-9.001171e-05,8.144128e-05,0.0,0.018299794,1.6653721,-1.5908505,-2.8638613,-0.37228525,0.0,0.18383801,0.9338059,0.4839635,0.5895427,0.113724165,inf,inf,inf,inf,0,1,0,1,1,0,1,0,2,0,0,1
45394435,0,0.0,0.0,0.0,0.0,-1.3397363,-4.473132e-07,4.0472244e-07,0.0,0.35297588,0.09115303,-0.43550518,0.0111762835,-9.001171e-05,8.144128e-05,0.0,1.9232745,1.8443538,-2.9237666,-2.864052,-0.37228525,0.0,0.1799035,0.9850155,0.48323798,0.6118379,0.113747135,inf,inf,inf,inf,0,1,0,1,1,0,1,0,2,0,0,1
45503707,0,0.0,0.0,0.0,0.0,-1.3370055,-4.473132e-07,4.0472244e-07,0.0,0.35524526,0.08880468,-0.4233776,0.022434639,-9.001171e-05,8.144128e-05,0.0,-0.0030243997,-2.9263463,1.761199,-2.8648088,-0.37228525,0.0,0.17717266,1.046725,0.48337194,0.63779384,0.11391483,inf,inf,inf,inf,0,1,0,1,1,0,1,0,2,0,0,1
45603191,0,0.0,0.0,0.0,0.0,-1.3353171,-4.473132e-07,4.0472244e-07,0.0,0.37147173,0.088828534,-0.41821244,0.026020752,-9.001171e-05,8.144128e-05,0.0,-0.11193751,-0.64840776,1.9036748,-2.8647215,-0.37228525,0.0,0.1754843,1.1022404,0.4826605,0.6597314,0.113951184,inf,inf,inf,inf,0,1,0,1,1,0,1,0,2,0,0,1
45697414,0,0.0,0.0,0.0,0.0,-1.3353494,-4.473132e-07,4.0472244e-07,0.0,0.38230208,0.09717623,-0.425932,0.017287126,-9.001171e-05,8.144128e-05,0.0,-0.02519516,1.9669633,-0.84974515,-2.863838,-0.37228525,0.0,0.17884421,1.157197,0.48111364,0.6809889,0.113868706,inf,inf,inf,inf,0,1,0,1,1,0,1,0,2,0,0,1
45796747,0,0.0,0.0,0.0,0.0,-1.3330245,-4.473132e-07,4.0472244e-07,0.0,0.38669065,0.09204571,-0.4228288,0.01911264,-9.001171e-05,8.144128e-05,0.0,-0.35318196,-0.0842629,0.45168948,-2.8636522,-0.37228525,0.0,0.17651927,1.2162195,0.48501548,0.70258945,0.114520825,inf,inf,inf,inf,0,1,0,1,1,0,1,0,2,0,0,1
45896089,0,0.0,0.0,0.0,0.0,-1.3298746,-4.473132e-07,4.0472244e-07,0.0,0.40456983,0.09511934,-0.42600623,0.014460587,-9.001171e-05,8.144128e-05,0.0,1.1484727,2.1355758,-2.2011795,-2.864136,-0.37228525,0.0,0.17336941,1.2820818,0.48432508,0.726311,0.114578605,inf,inf,inf,inf,0,1,0,1,1,0,1,0,2,0,0,1
45995427,0,0.0,0.0,0.0,0.0,-1.328216,-4.473132e-07,4.0472244e-07,0.0,0.40944248,0.09340671,-0.4081727,0.029757721,-9.001171e-05,8.144128e-05,0.0,-0.57855123,0.84629613,-0.3011492,-2.8642797,-0.37228525,0.0,0.17171073,1.3443125,0.48360172,0.74701357,0.11460431,inf,inf,inf,inf,0,1,0,1,1,0,1,0,2,0,0,1
46094768,0,0.0,0.0,0.0,0.0,-1.3257759,-4.473132e-07,4.0472244e-07,0.0,0.42180628,0.08852262,-0.41275218,0.023835037,-9.001171e-05,8.144128e-05,0.0,1.6797895,0.6868092,-0.52788436,-2.8640432,-0.37228525,0.0,0.17281878,1.4149755,0.48289976,0.77078104,0.114660226,inf,inf,inf,inf,0,1,0,1,1,0,1,0,2,0,0,1
46204034,0,0.0,0.0,0.0,0.0,-1.3213202,-4.473132e-07,4.0472244e-07,0.0,0.4255689,0.07772219,-0.4003062,0.036486022,-9.001171e-05,8.144128e-05,0.0,-1.2912904,-0.4262279,1.4910207,-2.8651462,-0.37228525,0.0,0.1756339,1.487195,0.48305556,0.7928136,0.11480606,inf,inf,inf,inf,0,1,0,1,1,0,1,0,2,0,0,1
46303392,0,0.0,0.0,0.0,0.0,-1.3159952,-4.473132e-07,4.0472244e-07,0.0,0.44719797,0.070910156,-0.40282807,0.035178356,-9.001171e-05,8.144128e-05,0.0,1.1789982,-0.61974585,-0.02644632,-2.864312,-0.37228525,0.0,0.17421067,1.562779,0.48239052,0.8165724,0.1148662,inf,inf,inf,inf,0,1,0,1,1,0,1,0,2,0,0,1
46402829,0,0.0,0.0,0.0,0.0,-1.3128669,-4.473132e-07,4.0472244e-07,0.0,0.46536812,0.07154943,-0.40933636,0.02743898,-9.001171e-05,8.144128e-05,0.0,1.6732185,-0.59977853,-0.1954463,-2.8641758,-0.37228525,0.0,0.17108238,1.629561,0.48170018,0.8349945,0.11487329,inf,inf,inf,inf,0,1,0,1,1,0,1,0,2,0,0,1
46497080,0,0.0,0.0,0.0,0.0,-1.3119061,-4.473132e-07,4.0472244e-07,0.0,0.46853358,0.06932606,-0.40044245,0.0352114,-9.001171e-05,8.144128e-05,0.0,3.5039525,0.15063716,-1.0035876,-2.8639934,-0.37228525,0.0,0.17056537,1.7015527,0.48479587,0.85633737,0.11541537,inf,inf,inf,inf,0,1,0,1,1,0,1,0,2,0,0,1
46596417,0,0.0,0.0,0.0,0.0,-1.3085914,-4.473132e-07,4.0472244e-07,0.0,0.47805187,0.061422862,-0.39242354,0.041781347,-9.001171e-05,8.144128e-05,0.0,0.023067255,-0.6798427,1.1248755,-2.864634,-0.37228525,0.0,0.16944706,1.7691568,0.48409963,0.8734014,0.1154108,inf,inf,inf,inf,0,1,0,1,1,0,1,0,2,0,0,1
46695754,0,0.0,0.0,0.0,0.0,-1.303384,-4.473132e-07,4.0472244e-07,0.0,0.49076992,0.065999694,-0.40129554,0.032358516,-9.001171e-05,8.144128e-05,0.0,1.1040637,0.04760272,-1.408316,-2.8651755,-0.37228525,0.0,0.16916716,1.8533136,0.4834715,0.8969985,0.1154644,inf,inf,inf,inf,0,1,0,1,1,0,1,0,2,0,0,1
46795092,0,0.0,0.0,0.0,0.0,-1.2971452,-4.473132e-07,4.0472244e-07,0.0,0.49678147,0.058090158,-0.38826424,0.045983456,-9.001171e-05,8.144128e-05,0.0,-1.0815645,-1.5730582,-0.13416079,-2.8651278,-0.37228525,0.0,0.1733861,1.9208024,0.48282978,0.91204226,0.11544829,inf,inf,inf,inf,0,1,0,1,1,0,1,0,2,0,0,1
46904406,0,0.0,0.0,0.0,0.0,-1.2907861,-4.473132e-07,4.0472244e-07,0.0,0.5124422,0.042692382,-0.3911499,0.043133993,-9.001171e-05,8.144128e-05,0.0,-0.36467984,-1.3939533,0.43658528,-2.8649144,-0.37228525,0.0,0.1702882,2.0179992,0.48307225,0.93782896,0.11562074,inf,inf,inf,inf,0,1,0,1,1,0,1,0,2,0,0,1
46998733,0,0.0,0.0,0.0,0.0,-1.2872105,-4.473132e-07,4.0472244e-07,0.0,0.51648647,0.042551555,-0.38381132,0.05052962,-9.001171e-05,8.144128e-05,0.0,-2.6014183,-0.66632766,1.2329397,-2.864269,-0.37228525,0.0,0.17397833,2.0754237,0.48155206,0.94842654,0.11543772,inf,inf,inf,inf,0,1,0,1,1,0,1,0,2,0,0,1
47098072,0,0.0,0.0,0.0,0.0,-1.2818481,-4.473132e-07,4.0472244e-07,0.0,0.5304122,0.032900225,-0.37678817,0.056724217,-9.001171e-05,8.144128e-05,0.0,-3.7914207,-0.6223528,2.960387,-2.8643157,-0.37228525,0.0,0.16861594,2.1675467,0.48554873,0.9717459,0.116094336,inf,inf,inf,inf,0,1,0,1,1,0,1,0,2,0,0,1
47197466,0,0.0,0.0,0.0,0.0,-1.2742183,-4.473132e-07,4.0472244e-07,0.0,0.53352237,0.028509114,-0.3695186,0.06436112,-9.001171e-05,8.144128e-05,0.0,-4.829962,-0.18384576,3.4122427,-2.8643832,-0.37228525,0.0,0.1679666,2.2620256,0.4849514,0.9951822,0.11614245,inf,inf,inf,inf,0,1,0,1,1,0,1,0,2,0,0,1
47296746,0,0.0,0.0,0.0,0.0,-1.2642341,-4.473132e-07,4.0472244e-07,0.0,0.5542505,0.024087295,-0.3806278,0.055413827,-9.001171e-05,8.144128e-05,0.0,2.8760097,0.9079864,-2.6736495,-2.8644028,-0.37228525,0.0,0.17117,2.3270211,0.48429632,1.0053767,0.1160671,inf,inf,inf,inf,0,1,0,1,1,0,1,0,2,0,0,1
47396083,0,0.0,0.0,0.0,0.0,-1.2530266,-4.473132e-07,4.0472244e-07,0.0,0.5541843,0.017956194,-0.367194,0.072232336,-9.001171e-05,8.144128e-05,0.0,-1.1459018,-0.98814464,0.49837047,-2.8656607,-0.37228525,0.0,0.17407954,2.4249797,0.48372835,1.0284421,0.11612298,inf,inf,inf,inf,0,1,0,1,1,0,1,0,2,0,0,1
47495618,0,0.0,0.0,0.0,0.0,-1.2443645,-4.473132e-07,4.0472244e-07,0.0,0.5656787,0.02980954,-0.37934795,0.06090456,-9.001171e-05,8.144128e-05,0.0,-1.4282646,-0.764174,-0.236739,-2.8647103,-0.37228525,0.0,0.16541743,2.485855,0.48306715,1.0358027,0.1160138,inf,inf,inf,inf,0,1,0,1,1,0,1,0,2,0,0,1
47599727,0,0.0,0.0,0.0,0.0,-1.2417032,-4.473132e-07,4.0472244e-07,0.0,0.5682178,0.07005275,-0.3938716,0.044129644,-9.001171e-05,8.144128e-05,0.0,1.5855672,0.47580394,-1.3060275,-2.8643515,-0.37228525,0.0,0.16359746,2.5869465,0.48249292,1.058594,0.11604133,inf,inf,inf,inf,0,1,0,1,1,0,1,0,2,0,0,1
47699062,0,0.0,0.0,0.0,0.0,-1.2395284,-4.473132e-07,4.0472244e-07,0.0,0.5662384,0.080366485,-0.3927314,0.04143943,-9.001171e-05,8.144128e-05,0.0,-0.51538074,0.22304305,1.1315556,-2.8633673,-0.37228525,0.0,0.16142273,2.6427436,0.48182133,1.0631791,0.11585892,inf,inf,inf,inf,0,1,0,1,1,0,1,0,2,0,0,1
47798461,0,0.0,0.0,0.0,0.0,-1.2386484,-4.473132e-07,4.0472244e-07,0.0,0.5853646,0.04072057,-0.3727836,0.055328317,-9.001171e-05,8.144128e-05,0.0,1.1080741,0.19085807,0.3306596,-2.8625176,-0.37228525,0.0,0.16054273,2.7466512,0.48126858,1.0857074,0.11575465,inf,inf,inf,inf,0,1,0,1,1,0,1,0,2,0,0,1
47897737,0,0.0,0.0,0.0,0.0,-1.2352856,-4.473132e-07,4.0472244e-07,0.0,0.6114639,-0.053020805,-0.30981368,0.11215603,-9.001171e-05,8.144128e-05,0.0,-0.21224216,-1.6369203,2.207174,-2.8555043,-0.37228525,0.0,0.15717995,2.7959607,0.4852001,1.0869147,0.115895145,inf,inf,inf,inf,0,1,0,1,1,0,1,0,2,0,0,1
47997097,0,0.0,0.0,0.0,0.0,-1.22449,-4.473132e-07,4.0472244e-07,0.0,0.6743121,-0.027436398,-0.3690398,0.05022939,-9.001171e-05,8.144128e-05,0.0,0.75911003,3.7528102,-2.204088,-2.8463948,-0.37228525,0.0,0.14983642,2.9022944,0.4846303,1.1089249,0.115462616,inf,inf,inf,inf,0,1,0,1,1,0,1,0,2,0,0,1
48101399,0,0.0,0.0,0.0,0.0,-1.2223762,-4.473132e-07,4.0472244e-07,0.0,0.65550506,-0.058432676,-0.383008,0.033606507,-9.001171e-05,8.144128e-05,0.0,-0.4075749,-0.2547086,-0.3028259,-2.8363206,-0.37228525,0.0,0.14918423,2.9435346,0.4838795,1.106375,0.114911355,inf,inf,inf,inf,0,1,0,1,1,0,1,0,2,0,0,1
48200716,0,0.0,0.0,0.0,0.0,-1.2212559,-4.473132e-07,4.0472244e-07,0.0,0.6292353,-0.09565094,-0.36453602,0.04754648,-9.001171e-05,8.144128e-05,0.0,0.3669263,1.343318,1.3913451,-2.848442,-0.37228525,0.0,0.15039074,3.0518608,0.48327246,1.1283737,0.114934415,inf,inf,inf,inf,0,1,0,1,1,0,1,0,2,0,0,0
48300240,0,0.0,0.0,0.0,0.0,-1.2194037,-4.473132e-07,4.0472244e-07,0.0,0.6356647,-0.09239384,-0.33971363,0.0666154,-9.001171e-05,8.144128e-05,0.0,-0.8974047,2.9162781,0.13650124,-2.862942,-0.37228525,0.0,0.14853859,3.084247,0.48251754,1.1226655,0.114828885,inf,inf,inf,inf,0,1,0,1,1,0,1,0,2,0,0,0
48399431,0,0.0,0.0,0.0,0.0,-1.217163,-4.473132e-07,4.0472244e-07,0.0,0.652385,-0.059964042,-0.32274908,0.0769871,-9.001171e-05,8.144128e-05,0.0,-0.0075970404,2.5438302,-0.56005996,-2.876121,-0.37228525,0.0,0.14629781,3.194218,0.48194054,1.1438595,0.115055345,inf,inf,inf,inf,0,1,0,1,1,0,1,0,2,0,0,0
48498728,0,0.0,0.0,0.0,0.0,-1.217188,-4.473132e-07,4.0472244e-07,0.0,0.6237996,-0.06824638,-0.3552408,0.03742607,-9.001171e-05,8.144128e-05,0.0,0.8044386,1.9847145,-1.069367,-2.8796787,-0.37228525,0.0,0.14632285,3.216892,0.48118395,1.1344742,0.11501916,inf,inf,inf,inf,0,1,0,1,1,0,1,0,2,0,0,0
48598069,0,0.0,0.0,0.0,0.0,-1.2172024,-4.473132e-07,4.0472244e-07,0.0,0.61006075,-0.03503709,-0.35353884,0.034059823,-9.001171e-05,8.144128e-05,0.0,-0.39042243,0.94694835,0.5253159,-2.8777533,-0.37228525,0.0,0.14633727,3.328301,0.48523957,1.1552615,0.11578269,inf,inf,inf,inf,0,1,0,1,1,0,1,0,2,0,0,0
48697437,48617932,34.03371020000001,108.7637343,0.10141797,0.017964086,-1.2003506,-2.0851908,0.11396706,0.0,-0.00518288,0.08345089,-0.0089273695,0.37840417,-0.6203817,0.093075745,0.35396147,-0.5327056,-0.23975246,-0.24338128,-2.7849827,0.09131726,441.86426,0.14101088,0.92002594,0.48212892,0.23064984,0.17826742,inf,inf,inf,inf,1,1,1,1,2,0,2,1,3,1,1,0
48796779,48617932,34.03371020000001,108.7637343,0.073372245,0.012880719,-1.1551213,-2.0851908,0.11396706,0.0,0.004937684,0.09493539,-0.05802462,0.3281017,-0.6203817,0.093075745,0.35396147,0.56926125,-2.5583563,-1.8825288,-2.7846978,0.09131726,441.86426,0.13656771,0.92049,0.47377807,0.2329429,0.17886119,inf,inf,inf,inf,1,1,1,1,2,0,2,1,3,1,1,0
48896077,48617932,34.03371020000001,108.7637343,0.039257117,0.019272653,-1.1115853,-2.0851908,0.11396706,0.0,-0.009656259,0.12942523,-0.1246922,0.25965765,-0.6203817,0.093075745,0.35396147,-1.0652351,-0.9540532,-0.27348316,-2.7883248,0.09131726,441.86426,0.12734723,0.7505387,0.4662596,0.2074826,0.16698733,inf,inf,inf,inf,1,1,1,1,2,0,2,1,3,1,1,0
49005357,48617932,34.03371020000001,108.7637343,0.014036539,0.035422284,-1.0795889,-2.0851908,0.11396706,0.0,-0.0004633217,0.15009806,-0.19750446,0.18197678,-0.6203817,0.093075745,0.35396147,0.16384633,-4.1973233,-1.5941507,-2.7892015,0.09131726,441.86426,0.118617654,0.75189453,0.4600307,0.21450856,0.16834916,inf,inf,inf,inf,1,1,1,1,2,0,2,1,3,1,1,0
49094875,48617932,34.03371020000001,108.7637343,0.001123336,0.052141864,-1.0661762,-2.0851908,0.11396706,0.0,0.014155952,0.16307461,-0.26786873,0.10484544,-0.6203817,0.093075745,0.35396147,0.03304498,0.8006777,-1.277319,-2.7885358,0.09131726,441.86426,0.116990566,0.65009224,0.45740843,0.19720231,0.15891355,inf,inf,inf,inf,1,1,1,1,2,0,2,1,3,1,1,0
49204023,48617932,34.03371020000001,108.7637343,-0.0069559338,0.07645091,-1.0566784,-2.0851908,0.11396706,0.0,0.02219661,0.1667319,-0.30376872,0.06341499,-0.6203817,0.093075745,0.35396147,-1.2974468,-3.2245436,1.3123231,-2.78509,0.09131726,441.86426,0.13398516,0.65215397,0.4488689,0.20794477,0.16091818,inf,inf,inf,inf,1,1,1,1,2,0,2,1,3,1,1,0
49293426,48617932,34.03371020000001,108.7637343,-0.011240608,0.09693736,-1.053219,-2.0851908,0.11396706,0.0,0.024501437,0.17930152,-0.33858517,0.024879115,-0.6203817,0.093075745,0.35396147,-0.5434551,1.7729942,-1.6317232,-2.7817292,0.09131726,441.86426,0.13802528,0.5822391,0.4467233,0.19453833,0.15326257,inf,inf,inf,inf,1,1,1,1,2,0,2,1,3,1,1,0
49397778,48617932,34.03371020000001,108.7637343,-0.014243829,0.11973762,-1.0556716,-2.0851908,0.11396706,0.0,0.04076548,0.16578227,-0.38849154,-0.028032083,-0.6203817,0.093075745,0.35396147,0.61036414,-0.42791203,-1.6776949,-2.779819,0.09131726,441.86426,0.14604366,0.58471626,0.44283682,0.20648447,0.15561491,inf,inf,inf,inf,1,1,1,1,2,0,2,1,3,1,1,0
49497068,48617932,34.03371020000001,108.7637343,-0.014435147,0.14235273,-1.0631274,-2.0851908,0.11396706,0.0,0.026472192,0.15294826,-0.40741727,-0.051494714,-0.6203817,0.093075745,0.35396147,-1.9298131,-1.164086,1.1136817,-2.7778971,0.09131726,441.86426,0.15349948,0.5328584,0.4378305,0.1952753,0.14937286,inf,inf,inf,inf,1,1,1,1,2,0,2,1,3,1,1,0
49596418,48617932,34.03371020000001,108.7637343,-0.0128959045,0.1689053,-1.0749525,-2.0851908,0.11396706,0.0,0.011890613,0.1254262,-0.42044672,-0.07127708,-0.6203817,0.093075745,0.35396147,-0.44226816,-3.1428723,-1.1294317,-2.7755537,0.09131726,441.86426,0.16532457,0.5359796,0.43492123,0.20873241,0.15230228,inf,inf,inf,inf,1,1,1,1,2,0,2,1,3,1,1,0
49700710,48617932,34.03371020000001,108.7637343,-0.013249845,0.19242974,-1.0902439,-2.0851908,0.11396706,0.0,-0.0045156227,0.102864094,-0.4387072,-0.09544627,-0.6203817,0.093075745,0.35396147,1.8701595,-1.8540728,-1.125488,-2.7770371,0.09131726,441.86426,0.18061602,0.49531052,0.430375,0.19765402,0.14698726,inf,inf,inf,inf,1,1,1,1,2,0,2,1,3,1,1,0
49800047,48617932,34.03371020000001,108.7637343,-0.016957968,0.2117292,-1.1057909,-2.0851908,0.11396706,0.0,-0.04793629,0.069553286,-0.44994113,-0.11226618,-0.6203817,0.093075745,0.35396147,0.2923555,1.0012329,-0.77816963,-2.7800395,0.09131726,441.86426,0.19616294,0.49911702,0.4282835,0.21146677,0.15022577,inf,inf,inf,inf,1,1,1,1,2,0,2,1,3,1,1,0
49899497,48617932,34.03371020000001,108.7637343,-0.027899483,0.22537315,-1.1218654,-2.0851908,0.11396706,0.0,-0.10577116,0.015074947,-0.44822037,-0.11597729,-0.6203817,0.093075745,0.35396147,-0.53647745,2.3549685,0.7908976,-2.7840416,0.09131726,441.86426,0.21223748,0.46583173,0.42409393,0.19975229,0.14565957,inf,inf,inf,inf,1,1,1,1,2,0,2,1,3,1,1,0
49998721,48617932,34.03371020000001,108.7637343,-0.045460857,0.23054308,-1.1388938,-2.0851908,0.11396706,0.0,-0.12967184,-0.08358499,-0.45663384,-0.12959205,-0.6203817,0.093075745,0.35396147,1.2942463,-0.43652815,-0.13049853,-2.7877645,0.09131726,441.86426,0.22926593,0.47032216,0.42581868,0.21354912,0.1493804,inf,inf,inf,inf,1,1,1,1,2,0,2,1,3,1,1,0
50098059,48617932,34.03371020000001,108.7637343,-0.06363468,0.22735922,-1.1579267,-2.0851908,0.11396706,0.0,-0.14533448,-0.16948815,-0.4695493,-0.14824374,-0.6203817,0.093075745,0.35396147,0.21303052,-2.4854994,-0.17246056,-2.78843,0.09131726,441.86426,0.24829876,0.44216877,0.4218072,0.20083709,0.14514835,inf,inf,inf,inf,1,1,1,1,2,0,2,1,3,1,1,0
50197407,48617932,34.03371020000001,108.7637343,-0.07974145,0.21340321,-1.1807786,-2.0851908,0.11396706,0.0,-0.13662401,-0.30688125,-0.4802753,-0.16669399,-0.6203817,0.093075745,0.35396147,0.1396278,-1.9031659,-1.8226354,-2.7882776,0.09131726,441.86426,0.2711507,0.4473139,0.42097738,0.21430387,0.14907646,inf,inf,inf,inf,1,1,1,1,2,0,2,1,3,1,1,0
50296734,48617932,34.03371020000001,108.7637343,-0.09573744,0.18849193,-1.2077584,-2.0851908,0.11396706,0.0,-0.097037576,-0.40922704,-0.4916932,-0.1882933,-0.6203817,0.093075745,0.35396147,1.6196278,-1.1849315,-1.5575459,-2.78905,0.09131726,441.86426,0.2981305,0.42602944,0.4171733,0.2009975,0.14516753,inf,inf,inf,inf,1,1,1,1,2,0,2,1,3,1,1,0
50396076,48617932,34.03371020000001,108.7637343,-0.11135511,0.15756682,-1.2404772,-2.0851908,0.11396706,0.0,-0.06450106,-0.5009911,-0.49744153,-0.20736073,-0.6203817,0.093075745,0.35396147,1.7066551,1.752096,-0.27510446,-2.789669,0.09131726,441.86426,0.3308493,0.43181506,0.41686404,0.21391751,0.14932498,inf,inf,inf,inf,1,1,1,1,2,0,2,1,3,1,1,0
50495408,48617932,34.03371020000001,108.7637343,-0.122308776,0.11653341,-1.2771165,-2.0851908,0.11396706,0.0,-0.035155114,-0.56862515,-0.5038553,-0.22887968,-0.6203817,0.093075745,0.35396147,-0.48040375,2.5566626,0.88505477,-2.7902339,0.09131726,441.86426,0.36748862,0.4094503,0.41609254,0.19975188,0.14566185,inf,inf,inf,inf,1,1,1,1,2,0,2,1,3,1,1,0
50604679,48617932,34.03371020000001,108.7637343,-0.13114968,0.066874444,-1.3219255,-2.0851908,0.11396706,0.0,-0.014239392,-0.59407866,-0.52972764,-0.27204755,-0.6203817,0.093075745,0.35396147,-0.021936804,0.8136417,-0.79374135,-2.7888002,0.09131726,441.86426,0.4122976,0.41643068,0.4168731,0.2131844,0.1504726,inf,inf,inf,inf,1,1,1,1,2,0,2,1,3,1,1,0
50694206,48617932,34.03371020000001,108.7637343,-0.13625835,0.02489043,-1.3592772,-2.0851908,0.11396706,0.0,-0.014004964,-0.5721111,-0.5409851,-0.29493824,-0.6203817,0.093075745,0.35396147,-0.59762734,3.0660357,0.2595252,-2.7878666,0.09131726,441.86426,0.44964933,0.39566275,0.4126095,0.19801767,0.14621453,inf,inf,inf,inf,1,1,1,1,2,0,2,1,3,1,1,0
50803357,48617932,34.03371020000001,108.7637343,-0.14212301,-0.024838902,-1.4062514,-2.0851908,0.11396706,0.0,-0.022854134,-0.53250223,-0.55472344,-0.3212307,-0.6203817,0.093075745,0.35396147,-0.45357475,1.1793514,-1.12346,-2.7867048,0.09131726,441.86426,0.49662352,0.40316412,0.41381538,0.21059225,0.1511126,inf,inf,inf,inf,1,1,1,1,2,0,2,1,3,1,1,0
50902691,48617932,34.03371020000001,108.7637343,-0.14019477,-0.06127597,-1.4476442,-2.0851908,0.11396706,0.0,-0.031162594,-0.4443266,-0.5634187,-0.33755395,-0.6203817,0.093075745,0.35396147,-0.49589136,3.925723,-0.6292953,-2.7866902,0.09131726,441.86426,0.5380163,0.38464,0.41020533,0.19632708,0.14713727,inf,inf,inf,inf,1,1,1,1,2,0,2,1,3,1,1,0
50997061,48617932,34.03371020000001,108.7637343,-0.13062298,-0.08526031,-1.4879115,-2.0851908,0.11396706,0.0,-0.029014247,-0.3751653,-0.57224894,-0.3519448,-0.6203817,0.093075745,0.35396147,1.2051588,-0.5004105,-1.1811272,-2.786157,0.09131726,441.86426,0.57828355,0.39112848,0.4104597,0.20588131,0.15103811,inf,inf,inf,inf,1,1,1,1,2,0,2,1,3,1,1,0
51096399,48617932,34.03371020000001,108.7637343,-0.1249311,-0.105954975,-1.5301867,-2.0851908,0.11396706,0.0,-0.04805309,-0.27919176,-0.57206947,-0.3576162,-0.6203817,0.093075745,0.35396147,-0.0837812,1.8574531,0.13462453,-2.7865338,0.09131726,441.86426,0.62055874,0.373929,0.4096846,0.19188724,0.14718407,inf,inf,inf,inf,1,1,1,1,2,0,2,1,3,1,1,0
51195736,48617932,34.03371020000001,108.7637343,-0.13207188,-0.12235369,-1.5744767,-2.0851908,0.11396706,0.0,-0.07135158,-0.21703723,-0.5751811,-0.36796322,-0.6203817,0.093075745,0.35396147,-0.6367532,-0.7631712,0.7945532,-2.7865481,0.09131726,441.86426,0.6648488,0.38139853,0.4108925,0.20198105,0.15168358,inf,inf,inf,inf,1,1,1,1,2,0,2,1,3,1,1,0
51305009,48617932,34.03371020000001,108.7637343,-0.14454913,-0.1289819,-1.6218723,-2.0851908,0.11396706,0.0,-0.098915115,-0.12968762,-0.5880815,-0.38631734,-0.6203817,0.093075745,0.35396147,0.59434587,1.1987267,-1.554037,-2.7857232,0.09131726,441.86426,0.7122444,0.36686182,0.4085639,0.19213627,0.14903252,inf,inf,inf,inf,1,1,1,1,2,0,2,1,3,1,1,0
51394410,48617932,34.03371020000001,108.7637343,-0.15902801,-0.12475873,-1.6624539,-2.0851908,0.11396706,0.0,-0.13358526,-0.06026842,-0.5894099,-0.39284378,-0.6203817,0.093075745,0.35396147,-1.5680057,0.5234335,0.25424406,-2.7856846,0.09131726,441.86426,0.752826,0.37406382,0.40941343,0.20073606,0.15293175,inf,inf,inf,inf,1,1,1,1,2,0,2,1,3,1,1,0
51503753,48617932,34.03371020000001,108.7637343,-0.17962255,-0.10876381,-1.7101716,-2.0851908,0.11396706,0.0,-0.15716645,0.012932122,-0.5918896,-0.39839774,-0.6203817,0.093075745,0.35396147,-1.9344841,-1.5642452,1.3075963,-2.785181,0.09131726,441.86426,0.80054367,0.36037365,0.40716478,0.19100581,0.1502438,inf,inf,inf,inf,1,1,1,1,2,0,2,1,3,1,1,0
51593086,48617932,34.03371020000001,108.7637343,-0.19811605,-0.085368484,-1.7482288,-2.0851908,0.11396706,0.0,-0.16368786,0.08438947,-0.6050095,-0.41252288,-0.6203817,0.093075745,0.35396147,0.91918397,-1.849338,-0.36042377,-2.783859,0.09131726,441.86426,0.8386009,0.36796078,0.40827772,0.19917856,0.15408589,inf,inf,inf,inf,1,1,1,1,2,0,2,1,3,1,1,0
51702357,48617932,34.03371020000001,108.7637343,-0.22613254,-0.055442452,-1.7973071,-2.0851908,0.11396706,0.0,-0.18365566,0.17144671,-0.61481595,-0.42567527,-0.6203817,0.093075745,0.35396147,0.78432137,3.2844954,-0.8719132,-2.782253,0.09131726,441.86426,0.8876792,0.3544483,0.40576166,0.18838966,0.15080965,inf,inf,inf,inf,1,1,1,1,2,0,2,1,3,1,1,0
51791935,48617932,34.03371020000001,108.7637343,-0.25527152,-0.029661542,-1.8387665,-2.0851908,0.11396706,0.0,-0.2056284,0.22587119,-0.62076825,-0.43436167,-0.6203817,0.093075745,0.35396147,-1.2443496,3.4279158,1.0424157,-2.7810545,0.09131726,441.86426,0.92913854,0.36228567,0.40985447,0.19616729,0.15489611,inf,inf,inf,inf,1,1,1,1,2,0,2,1,3,1,1,0
51896068,48617932,34.03371020000001,108.7637343,-0.2877151,0.0012104546,-1.8887987,-2.0851908,0.11396706,0.0,-0.20237917,0.25254944,-0.60643023,-0.42300048,-0.6203817,0.093075745,0.35396147,-0.028594075,-0.026592718,1.9212751,-2.776723,0.09131726,441.86426,0.9791708,0.3500242,0.4063259,0.18450078,0.15072474,inf,inf,inf,inf,1,1,1,1,2,0,2,1,3,1,1,0
52005336,48617932,34.03371020000001,108.7637343,-0.3209022,0.032418717,-1.9320823,-2.0851908,0.11396706,0.0,-0.19829012,0.28685167,-0.52968705,-0.34705296,-0.6203817,0.093075745,0.35396147,2.0200963,0.9478077,-0.4223058,-2.7615402,0.09131726,441.86426,1.0224544,0.3598487,0.4093964,0.19356005,0.15550976,inf,inf,inf,inf,1,1,1,1,2,0,2,1,3,1,1,0
52099706,48617932,34.03371020000001,108.7637343,-0.35168362,0.06719276,-1.9612567,-2.0851908,0.11396706,0.0,-0.19258216,0.29384258,-0.4184182,-0.23661783,-0.6203817,0.093075745,0.35396147,1.3782239,0.8398732,0.5560516,-2.7478473,0.09131726,441.86426,1.0516288,0.34644,0.40468153,0.18049547,0.15016744,inf,inf,inf,inf,1,1,1,1,2,0,2,1,3,1,1,0
52199043,48617932,34.03371020000001,108.7637343,-0.3863906,0.110275574,-1.9761782,-2.0851908,0.11396706,0.0,-0.18456773,0.29758412,-0.25775474,-0.0755493,-0.6203817,0.093075745,0.35396147,0.3527363,1.1662592,1.5968497,-2.7337449,0.09131726,441.86426,1.0665503,0.35541353,0.4070488,0.18801177,0.15406546,inf,inf,inf,inf,1,1,1,1,2,0,2,1,3,1,1,0
52298451,48617932,34.03371020000001,108.7637343,-0.41724518,0.15084766,-1.9713737,-2.0851908,0.11396706,0.0,-0.16263354,0.28556713,-0.06312442,0.1213561,-0.6203817,0.093075745,0.35396147,0.28950596,0.37401417,2.4917836,-2.7202458,0.09131726,441.86426,1.0617458,0.3484386,0.40585375,0.17704767,0.14942516,inf,inf,inf,inf,1,1,1,1,2,0,2,1,3,1,1,0
52397718,48617932,34.03371020000001,108.7637343,-0.44386163,0.18924984,-1.944057,-2.0851908,0.11396706,0.0,-0.14034627,0.26328433,0.107754536,0.29725996,-0.6203817,0.093075745,0.35396147,0.19773632,-1.4743495,0.24578573,-2.7072644,0.09131726,441.86426,1.0344291,0.35758972,0.40837485,0.18395372,0.15302801,inf,inf,inf,inf,1,1,1,1,2,0,2,1,3,1,1,0
52497058,48617932,34.03371020000001,108.7637343,-0.46955144,0.21679235,-1.9123228,-2.0851908,0.11396706,0.0,-0.107037865,0.23738293,0.2131941,0.39674893,-0.6203817,0.093075745,0.35396147,-0.85988986,0.96317697,-0.14293772,-2.695889,0.09131726,441.86426,1.0026948,0.35043815,0.4044242,0.17346159,0.14801241,inf,inf,inf,inf,1,1,1,1,2,0,2,1,3,1,1,0
52596593,48617932,34.03371020000001,108.7637343,-0.49491033,0.23193172,-1.8852931,-2.0851908,0.11396706,0.0,-0.058878962,0.17314108,0.23290847,0.4012364,-0.6203817,0.093075745,0.35396147,2.215754,-3.2675493,-1.1418517,-2.6849544,0.09131726,441.86426,0.9756652,0.35970014,0.40702346,0.18003468,0.151519,inf,inf,inf,inf,1,1,1,1,2,0,2,1,3,1,1,0
52700701,48617932,34.03371020000001,108.7637343,-0.5157375,0.2409369,-1.8605,-2.0851908,0.11396706,0.0,-0.019207092,0.14252578,0.19073139,0.3444506,-0.6203817,0.093075745,0.35396147,0.24452016,1.3491119,-1.1738565,-2.6762085,0.09131726,441.86426,0.95087206,0.35254475,0.4030925,0.17031047,0.14682816,inf,inf,inf,inf,1,1,1,1,2,0,2,1,3,1,1,0
52800036,48617932,34.03371020000001,108.7637343,-0.5340478,0.24272339,-1.842572,-2.0851908,0.11396706,0.0,0.007555419,0.09772821,0.13315596,0.273706,-0.6203817,0.093075745,0.35396147,-1.2196939,-1.0531361,0.31365612,-2.669221,0.09131726,441.86426,0.93294406,0.36188418,0.40574345,0.17689738,0.15061375,inf,inf,inf,inf,1,1,1,1,2,0,2,1,3,1,1,0
52899372,48617932,34.03371020000001,108.7637343,-0.5510169,0.23950757,-1.8354315,-2.0851908,0.11396706,0.0,0.039093144,0.07538835,0.05963516,0.18431859,-0.6203817,0.093075745,0.35396147,1.547075,2.7846549,-1.9004451,-2.6650064,0.09131726,441.86426,0.92580354,0.35676104,0.401825,0.16807242,0.14615935,inf,inf,inf,inf,1,1,1,1,2,0,2,1,3,1,1,0
52998709,48617932,34.03371020000001,108.7637343,-0.5691838,0.23272705,-1.8378463,-2.0851908,0.11396706,0.0,0.055830892,0.044745136,0.021748215,0.12925757,-0.6203817,0.093075745,0.35396147,0.44348282,-2.9136941,0.90155613,-2.6635096,0.09131726,441.86426,0.92821836,0.36620212,0.40726653,0.17446664,0.15015604,inf,inf,inf,inf,1,1,1,1,2,0,2,1,3,1,1,0
53098044,48617932,34.03371020000001,108.7637343,-0.5866371,0.22334403,-1.8416822,-2.0851908,0.11396706,0.0,0.0569097,0.038124774,0.0068826545,0.10073921,-0.6203817,0.093075745,0.35396147,-0.3866216,-1.2843643,1.2741454,-2.6633432,0.09131726,441.86426,0.9320543,0.3616522,0.40327337,0.16610111,0.14569272,inf,inf,inf,inf,1,1,1,1,2,0,2,1,3,1,1,0
53197385,48617932,34.03371020000001,108.7637343,-0.6059615,0.21120456,-1.8459369,-2.0851908,0.11396706,0.0,0.07273337,0.036849517,-0.00062324904,0.08177208,-0.6203817,0.093075745,0.35396147,1.5365365,0.44310632,-0.5049335,-2.6633232,0.09131726,441.86426,0.936309,0.37116882,0.40607405,0.17222689,0.14920099,inf,inf,inf,inf,1,1,1,1,2,0,2,1,3,1,1,0
53296721,48617932,34.03371020000001,108.7637343,-0.6219019,0.19821686,-1.8484333,-2.0851908,0.11396706,0.0,0.08273236,0.025359308,0.008038373,0.08175506,-0.6203817,0.093075745,0.35396147,2.0513027,-0.17901653,-1.0323157,-2.6637318,0.09131726,441.86426,0.93880534,0.36615562,0.40247282,0.16465832,0.14509726,inf,inf,inf,inf,1,1,1,1,2,0,2,1,3,1,1,0
53396186,48617932,34.03371020000001,108.7637343,-0.6359412,0.18402809,-1.8488352,-2.0851908,0.11396706,0.0,0.09667807,0.025088629,0.008964077,0.07660056,-0.6203817,0.093075745,0.35396147,1.23398,-0.72397476,-0.4099401,-2.664479,0.09131726,441.86426,0.9392073,0.37575498,0.405326,0.1705372,0.14842032,inf,inf,inf,inf,1,1,1,1,2,0,2,1,3,1,1,0
53495396,48617932,34.03371020000001,108.7637343,-0.6480644,0.16911893,-1.8467102,-2.0851908,0.11396706,0.0,0.11117241,0.026146792,0.010127001,0.074271314,-0.6203817,0.093075745,0.35396147,0.7697807,1.6654886,-0.8057692,-2.6648343,0.09131726,441.86426,0.9370823,0.37030143,0.40196782,0.1635297,0.14459832,inf,inf,inf,inf,1,1,1,1,2,0,2,1,3,1,1,0
53604667,48617932,34.03371020000001,108.7637343,-0.6609772,0.15107414,-1.8417283,-2.0851908,0.11396706,0.0,0.12959644,0.021633558,0.0117663015,0.07473307,-0.6203817,0.093075745,0.35396147,0.4173117,-1.1369804,-0.20392108,-2.6646245,0.09131726,441.86426,0.9321004,0.3809844,0.40571642,0.169838,0.14819355,inf,inf,inf,inf,1,1,1,1,2,0,2,1,3,1,1,0
53699038,48617932,34.03371020000001,108.7637343,-0.66776675,0.13732369,-1.8341504,-2.0851908,0.11396706,0.0,0.14529496,0.018961413,0.01727857,0.082537085,-0.6203817,0.093075745,0.35396147,0.609663,-1.846048,-0.8460309,-2.662942,0.09131726,441.86426,0.9245225,0.37382066,0.40440276,0.16261551,0.14453717,inf,inf,inf,inf,1,1,1,1,2,0,2,1,3,1,1,0
53798371,48617932,34.03371020000001,108.7637343,-0.6776321,0.11889646,-1.8217888,-2.0851908,0.11396706,0.0,0.15948246,0.027521543,0.01006263,0.08119717,-0.6203817,0.093075745,0.35396147,1.0856036,-1.4934099,-1.3306556,-2.6609688,0.09131726,441.86426,0.9121609,0.38356036,0.40742096,0.16821146,0.14765443,inf,inf,inf,inf,1,1,1,1,2,0,2,1,3,1,1,0
53897737,48617932,34.03371020000001,108.7637343,-0.6848529,0.100936994,-1.8052686,-2.0851908,0.11396706,0.0,0.17361487,0.028941872,0.010094695,0.09070893,-0.6203817,0.093075745,0.35396147,-0.28375256,1.8035693,-1.374478,-2.6576703,0.09131726,441.86426,0.89564073,0.37642723,0.40447113,0.16207862,0.14440225,inf,inf,inf,inf,1,1,1,1,2,0,2,1,3,1,1,0
53997049,48617932,34.03371020000001,108.7637343,-0.6916333,0.081002176,-1.7862886,-2.0851908,0.11396706,0.0,0.19090806,0.032459557,0.005791554,0.096857265,-0.6203817,0.093075745,0.35396147,1.5043243,0.577572,-1.5125686,-2.6538236,0.09131726,441.86426,0.8766607,0.38622847,0.4075593,0.16759476,0.14743578,inf,inf,inf,inf,1,1,1,1,2,0,2,1,3,1,1,0
54096399,48617932,34.03371020000001,108.7637343,-0.6958657,0.061531425,-1.766169,-2.0851908,0.11396706,0.0,0.2089175,0.023029834,0.0033750958,0.10516391,-0.6203817,0.093075745,0.35396147,1.620442,-3.1362913,-0.9485951,-2.649474,0.09131726,441.86426,0.85654104,0.37541026,0.4033656,0.15927637,0.14287011,inf,inf,inf,inf,1,1,1,1,2,0,2,1,3,1,1,0
54195811,48617932,34.03371020000001,108.7637343,-0.6996141,0.04092471,-1.7429665,-2.0851908,0.11396706,0.0,0.22196254,0.034524795,-0.005317083,0.10915327,-0.6203817,0.093075745,0.35396147,-0.11575582,-0.63719666,-0.59772116,-2.6446664,0.09131726,441.86426,0.8333386,0.38501364,0.40642384,0.16464849,0.14577737,inf,inf,inf,inf,1,1,1,1,2,0,2,1,3,1,1,0
54295061,48617932,34.03371020000001,108.7637343,-0.7007528,0.021174902,-1.7217928,-2.0851908,0.11396706,0.0,0.2388151,0.033552103,-0.013989726,0.11067663,-0.6203817,0.093075745,0.35396147,0.85213304,-0.9420255,0.17320493,-2.638894,0.09131726,441.86426,0.8121649,0.37223268,0.4022117,0.15640596,0.14125885,inf,inf,inf,inf,1,1,1,1,2,0,2,1,3,1,1,0
54394438,48617932,34.03371020000001,108.7637343,-0.7017822,0.00073473784,-1.7027644,-2.0851908,0.11396706,0.0,0.2559916,0.05017203,-0.031075586,0.10169761,-0.6203817,0.093075745,0.35396147,-0.68924206,2.3131802,0.40807745,-2.633751,0.09131726,441.86426,0.7931365,0.38159636,0.40798688,0.16167556,0.14441875,inf,inf,inf,inf,1,1,1,1,2,0,2,1,3,1,1,0
54498703,48617932,34.03371020000001,108.7637343,-0.6984904,-0.017689671,-1.6890972,-2.0851908,0.11396706,0.0,0.27220196,0.043532573,-0.053321764,0.08352279,-0.6203817,0.093075745,0.35396147,1.00253,-0.8650947,-0.42565906,-2.628401,0.09131726,441.86426,0.77946925,0.36681935,0.40374306,0.15357253,0.13999465,inf,inf,inf,inf,1,1,1,1,2,0,2,1,3,1,1,0
54598040,48617932,34.03371020000001,108.7637343,-0.70174193,-0.040879972,-1.6798968,-2.0851908,0.11396706,0.0,0.2889797,0.052255023,-0.07701706,0.060885,-0.6203817,0.093075745,0.35396147,-0.47660688,-0.38158217,-0.69053644,-2.6250598,0.09131726,441.86426,0.7702689,0.3759131,0.4067815,0.15876941,0.14272632,inf,inf,inf,inf,1,1,1,1,2,0,2,1,3,1,1,0
54697381,48617932,34.03371020000001,108.7637343,-0.701119,-0.060811874,-1.674813,-2.0851908,0.11396706,0.0,0.30463484,0.042735882,-0.0912945,0.045125432,-0.6203817,0.093075745,0.35396147,0.5798604,-2.9938245,-0.7961997,-2.6230652,0.09131726,441.86426,0.7651851,0.36065665,0.4026277,0.15124668,0.13853435,inf,inf,inf,inf,1,1,1,1,2,0,2,1,3,1,1,0
54796715,48617932,34.03371020000001,108.7637343,-0.6998204,-0.080109045,-1.6713772,-2.0851908,0.11396706,0.0,0.31876627,0.061498486,-0.10753779,0.02728299,-0.6203817,0.093075745,0.35396147,0.61361974,0.53882676,-1.2247639,-2.6228783,0.09131726,441.86426,0.76174927,0.36951005,0.40563715,0.15637976,0.14116894,inf,inf,inf,inf,1,1,1,1,2,0,2,1,3,1,1,0
54896052,48617932,34.03371020000001,108.7637343,-0.69366366,-0.093660615,-1.6695058,-2.0851908,0.11396706,0.0,0.32868862,0.06964207,-0.11749473,0.015829943,-0.6203817,0.093075745,0.35396147,-0.8577383,-0.07564497,-1.4628451,-2.6238117,0.09131726,441.86426,0.7598779,0.35482562,0.4015653,0.14920138,0.13702986,inf,inf,inf,inf,1,1,1,1,2,0,2,1,3,1,1,0
54995449,48617932,34.03371020000001,108.7637343,-0.6853444,-0.10385036,-1.6690165,-2.0851908,0.11396706,0.0,0.34278655,0.078833684,-0.11411403,0.017074592,-0.6203817,0.093075745,0.35396147,0.644169,0.18903928,0.32905483,-2.625296,0.09131726,441.86426,0.75938857,0.3634791,0.40452972,0.15424469,0.13954723,inf,inf,inf,inf,1,1,1,1,2,0,2,1,3,1,1,0
55094749,48617932,34.03371020000001,108.7637343,-0.67484605,-0.11100969,-1.6704586,-2.0851908,0.11396706,0.0,0.34559703,0.09880741,-0.11357337,0.01373595,-0.6203817,0.093075745,0.35396147,-0.93776256,2.8083913,0.44861275,-2.6274357,0.09131726,441.86426,0.76083064,0.34896383,0.40317357,0.14738564,0.13584933,inf,inf,inf,inf,1,1,1,1,2,0,2,1,3,1,1,0
55203998,48617932,34.03371020000001,108.7637343,-0.6632806,-0.1168455,-1.6725645,-2.0851908,0.11396706,0.0,0.34911186,0.10615654,-0.10583216,0.0168596,-0.6203817,0.093075745,0.35396147,-1.1153122,1.4833769,0.80099803,-2.6300082,0.09131726,441.86426,0.7629366,0.35832468,0.4070134,0.1528461,0.13859427,inf,inf,inf,inf,1,1,1,1,2,0,2,1,3,1,1,0
55303338,48617932,34.03371020000001,108.7637343,-0.65076625,-0.12063467,-1.6794901,-2.0851908,0.11396706,0.0,0.35526982,0.112610646,-0.101073876,0.012322755,-0.6203817,0.093075745,0.35396147,0.78408647,-0.13538598,0.871301,-2.6313276,0.09131726,441.86426,0.7698622,0.3502015,0.40294585,0.14698006,0.13462652,inf,inf,inf,inf,1,1,1,1,2,0,2,1,3,1,1,0
55402674,48617932,34.03371020000001,108.7637343,-0.63982385,-0.12509422,-1.6912647,-2.0851908,0.11396706,0.0,0.353033,0.11899334,-0.10337686,-0.002871538,-0.6203817,0.093075745,0.35396147,0.3790962,0.6132339,0.42070344,-2.6322458,0.09131726,441.86426,0.78163683,0.35872534,0.40589738,0.15187055,0.1369564,inf,inf,inf,inf,1,1,1,1,2,0,2,1,3,1,1,0
55502011,48617932,34.03371020000001,108.7637343,-0.62576574,-0.1265649,-1.7021831,-2.0851908,0.11396706,0.0,0.3393132,0.11727566,-0.10633175,-0.01587429,-0.6203817,0.093075745,0.35396147,-0.34979007,-3.3542275,0.26931483,-2.633327,0.09131726,441.86426,0.7925552,0.35251105,0.40190205,0.14634798,0.13310742,inf,inf,inf,inf,1,1,1,1,2,0,2,1,3,1,1,0
55596386,48617932,34.03371020000001,108.7637343,-0.6108469,-0.1265517,-1.7113913,-2.0851908,0.11396706,0.0,0.33387288,0.13105199,-0.104277626,-0.020641591,-0.6203817,0.093075745,0.35396147,-2.316643,2.4895613,0.30537245,-2.634859,0.09131726,441.86426,0.8017634,0.36017966,0.4039602,0.15069932,0.13505666,inf,inf,inf,inf,1,1,1,1,2,0,2,1,3,1,1,0
55695718,48617932,34.03371020000001,108.7637343,-0.5939038,-0.12607387,-1.7211242,-2.0851908,0.11396706,0.0,0.33480164,0.12457293,-0.10311382,-0.026195006,-0.6203817,0.093075745,0.35396147,-0.7503093,-1.3972574,1.6314858,-2.6361628,0.09131726,441.86426,0.81149626,0.3522259,0.40006733,0.14504465,0.13134545,inf,inf,inf,inf,1,1,1,1,2,0,2,1,3,1,1,0
55795132,48617932,34.03371020000001,108.7637343,-0.57918525,-0.12847415,-1.7311957,-2.0851908,0.11396706,0.0,0.33351526,0.13169992,-0.1084027,-0.037890557,-0.6203817,0.093075745,0.35396147,-1.6794953,2.3831215,0.69243354,-2.638592,0.09131726,441.86426,0.8215678,0.36069524,0.40560433,0.14998247,0.1339222,inf,inf,inf,inf,1,1,1,1,2,0,2,1,3,1,1,0
55894392,48617932,34.03371020000001,108.7637343,-0.5629659,-0.12602891,-1.7366453,-2.0851908,0.11396706,0.0,0.34040275,0.119201854,-0.097186424,-0.028093519,-0.6203817,0.093075745,0.35396147,0.8890618,-1.3923736,1.2406858,-2.6411338,0.09131726,441.86426,0.8270174,0.35042125,0.40172502,0.14421855,0.13033466,inf,inf,inf,inf,1,1,1,1,2,0,2,1,3,1,1,0
56003664,48617932,34.03371020000001,108.7637343,-0.54530126,-0.11871167,-1.7386874,-2.0851908,0.11396706,0.0,0.33415705,0.12078031,-0.090765394,-0.020180874,-0.6203817,0.093075745,0.35396147,-0.59143436,-2.233123,0.10093142,-2.644126,0.09131726,441.86426,0.8290595,0.359688,0.40540326,0.14948642,0.1327332,inf,inf,inf,inf,1,1,1,1,2,0,2,1,3,1,1,0
56093236,48617932,34.03371020000001,108.7637343,-0.53352,-0.1139871,-1.7384405,-2.0851908,0.11396706,0.0,0.33206955,0.12718618,-0.09361322,-0.020527748,-0.6203817,0.093075745,0.35396147,0.21427794,1.3435261,-1.0270422,-2.6469257,0.09131726,441.86426,0.8288126,0.34629446,0.40075487,0.14305067,0.1289582,inf,inf,inf,inf,1,1,1,1,2,0,2,1,3,1,1,0
56197371,48617932,34.03371020000001,108.7637343,-0.5229387,-0.11016238,-1.7379934,-2.0851908,0.11396706,0.0,0.3184907,0.13338794,-0.088083506,-0.012332746,-0.6203817,0.093075745,0.35396147,-1.4584277,3.28117,0.5244483,-2.651366,0.09131726,441.86426,0.82836545,0.35457647,0.40354812,0.14781381,0.13100572,inf,inf,inf,inf,1,1,1,1,2,0,2,1,3,1,1,0
56296714,48617932,34.03371020000001,108.7637343,-0.5106866,-0.10572044,-1.7369068,-2.0851908,0.11396706,0.0,0.31100932,0.12548994,-0.08918061,-0.0107905,-0.6203817,0.093075745,0.35396147,-0.36207354,0.94120216,1.2501705,-2.6566257,0.09131726,441.86426,0.82727885,0.34009305,0.39977583,0.14184356,0.12764087,inf,inf,inf,inf,1,1,1,1,2,0,2,1,3,1,1,0
56396056,48617932,34.03371020000001,108.7637343,-0.502515,-0.10422029,-1.7329865,-2.0851908,0.11396706,0.0,0.25063524,0.08158238,-0.06287374,0.018973514,-0.6203817,0.093075745,0.35396147,-0.1632873,0.03589578,0.80132645,-2.6581306,0.09131726,441.86426,0.82335854,0.34822568,0.4025279,0.14660445,0.12962642,inf,inf,inf,inf,1,1,1,1,2,0,2,1,3,1,1,0
56495384,48617932,34.03371020000001,108.7637343,-0.49890894,-0.1067036,-1.7307118,-2.0851908,0.11396706,0.0,0.17525794,0.037220195,-0.06677495,0.015838841,-0.6203817,0.093075745,0.35396147,-0.39976197,0.2044045,1.2474929,-2.6627035,0.09131726,441.86426,0.8210839,0.33570263,0.39884242,0.14099748,0.12633997,inf,inf,inf,inf,1,1,1,1,2,0,2,1,3,1,1,0
56594788,48617932,34.03371020000001,108.7637343,-0.50622016,-0.11384259,-1.7298359,-2.0851908,0.11396706,0.0,0.035463054,-0.03964175,-0.07361791,0.008756949,-0.6203817,0.093075745,0.35396147,0.35616764,-2.5406983,-1.0556111,-2.667991,0.09131726,441.86426,0.82020795,0.34375656,0.40421018,0.14570673,0.12858081,inf,inf,inf,inf,1,1,1,1,2,0,2,1,3,1,1,0
56703992,48617932,34.03371020000001,108.7637343,-0.53391945,-0.13328205,-1.726809,-2.0851908,0.11396706,0.0,-0.20902592,-0.1575722,-0.06906793,0.015145324,-0.6203817,0.093075745,0.35396147,-2.6688745,-1.6876181,1.0575172,-2.6764612,0.09131726,441.86426,0.8171811,0.3337696,0.40128624,0.14088936,0.12560141,inf,inf,inf,inf,1,1,1,1,2,0,2,1,3,1,1,0
56803332,48617932,34.03371020000001,108.7637343,-0.5889476,-0.16396141,-1.722039,-2.0851908,0.11396706,0.0,-0.49625438,-0.28422496,-0.084353805,0.00352061,-0.6203817,0.093075745,0.35396147,-3.9278564,-2.8443346,-1.0441983,-2.6839163,0.09131726,441.86426,0.81241107,0.3418427,0.4040062,0.14571896,0.12744582,inf,inf,inf,inf,1,1,1,1,2,0,2,1,3,1,1,0
56902862,48617932,34.03371020000001,108.7637343,-0.66934717,-0.20400858,-1.7204527,-2.0851908,0.11396706,0.0,-0.77067435,-0.37607345,-0.09293212,-0.003916675,-0.6203817,0.093075745,0.35396147,-1.5654954,0.0152130835,-2.0073907,-2.6946368,0.09131726,441.86426,0.81082475,0.33256516,0.40032664,0.14087255,0.12429136,inf,inf,inf,inf,1,1,1,1,2,0,2,1,3,1,1,0
56997037,48617932,34.03371020000001,108.7637343,-0.7698175,-0.24747445,-1.7194891,-2.0851908,0.11396706,0.0,-1.0257263,-0.4482051,-0.05313593,0.035640925,-0.6203817,0.093075745,0.35396147,-2.4474692,-3.3943224,1.5608853,-2.7058995,0.09131726,441.86426,0.8098612,0.33981177,0.4021735,0.14552435,0.12582432,inf,inf,inf,inf,1,1,1,1,2,0,2,1,3,1,1,0
57096376,48617932,34.03371020000001,108.7637343,-0.89610475,-0.29513654,-1.7143923,-2.0851908,0.11396706,0.0,-1.238442,-0.46376985,-0.009611806,0.07818197,-0.6203817,0.093075745,0.35396147,-1.757187,0.85793066,-1.4716061,-2.7161055,0.09131726,441.86426,0.8047644,0.33149818,0.39859328,0.14110982,0.12280579,inf,inf,inf,inf,1,1,1,1,2,0,2,1,3,1,1,0
57195714,48617932,34.03371020000001,108.7637343,-1.038339,-0.34188074,-1.7065086,-2.0851908,0.11396706,0.0,-1.3807987,-0.4675491,0.034652397,0.11968867,-0.6203817,0.093075745,0.35396147,-0.9361703,-1.0005594,1.7546018,-2.7247403,0.09131726,441.86426,0.7968807,0.33955038,0.40117434,0.14613414,0.124499656,inf,inf,inf,inf,1,1,1,1,2,0,2,1,3,1,1,0
57295049,48617932,34.03371020000001,108.7637343,-1.1895127,-0.38665664,-1.699996,-2.0851908,0.11396706,0.0,-1.4434694,-0.41820252,0.032306567,0.11201988,-0.6203817,0.093075745,0.35396147,0.72387123,-0.6075134,-0.91877174,-2.7304344,0.09131726,441.86426,0.7903681,0.3289353,0.40026626,0.14097275,0.12185341,inf,inf,inf,inf,1,1,1,1,2,0,2,1,3,1,1,0
57394386,48617932,34.03371020000001,108.7637343,-1.3428044,-0.42771602,-1.6961628,-2.0851908,0.11396706,0.0,-1.4352181,-0.3460614,0.027663734,0.100089185,-0.6203817,0.093075745,0.35396147,-1.6620188,2.9006443,0.73406357,-2.735467,0.09131726,441.86426,0.7865349,0.3369663,0.40285298,0.14579222,0.12354684,inf,inf,inf,inf,1,1,1,1,2,0,2,1,3,1,1,0
57498692,48617932,34.03371020000001,108.7637343,-1.49454,-0.45855978,-1.693833,-2.0851908,0.11396706,0.0,-1.3268435,-0.27171806,0.013776349,0.07962691,-0.6203817,0.093075745,0.35396147,1.3398714,2.4576538,-0.036666628,-2.7359455,0.09131726,441.86426,0.7842051,0.327036,0.3993281,0.14057893,0.12069972,inf,inf,inf,inf,1,1,1,1,2,0,2,1,3,1,1,0
57598088,48617932,34.03371020000001,108.7637343,-1.6235493,-0.47539243,-1.6916223,-2.0851908,0.11396706,0.0,-1.1354648,-0.2011026,0.0062413653,0.067388795,-0.6203817,0.093075745,0.35396147,1.4501282,0.77654594,0.61282414,-2.7313771,0.09131726,441.86426,0.78199434,0.33507067,0.40184352,0.14512305,0.122350335,inf,inf,inf,inf,1,1,1,1,2,0,2,1,3,1,1,0
57697488,48617932,34.03371020000001,108.7637343,-1.7262142,-0.48705357,-1.6934748,-2.0851908,0.11396706,0.0,-0.8769925,-0.1256873,-0.015008842,0.039055593,-0.6203817,0.093075745,0.35396147,2.57134,-1.1349112,-0.85857666,-2.722107,0.09131726,441.86426,0.78384686,0.3270164,0.39835367,0.14014144,0.11960194,inf,inf,inf,inf,1,1,1,1,2,0,2,1,3,1,1,0
57796702,48617932,34.03371020000001,108.7637343,-1.7989675,-0.4935184,-1.6990094,-2.0851908,0.11396706,0.0,-0.619647,-0.042944912,-0.017620174,0.0276143,-0.6203817,0.093075745,0.35396147,1.6628228,4.214626,0.518994,-2.7096481,0.09131726,441.86426,0.7893815,0.33509824,0.40082145,0.14452386,0.121181555,inf,inf,inf,inf,1,1,1,1,2,0,2,1,3,1,1,0
57896046,48617932,34.03371020000001,108.7637343,-1.8428106,-0.49545732,-1.7086567,-2.0851908,0.11396706,0.0,-0.34590358,0.0009303848,-0.0036892495,0.028818764,-0.6203817,0.093075745,0.35396147,2.9800668,0.38445765,-1.2459117,-2.6992245,0.09131726,441.86426,0.79902875,0.32733697,0.39998698,0.1395391,0.11876681,inf,inf,inf,inf,1,1,1,1,2,0,2,1,3,1,1,0
57995377,48617932,34.03371020000001,108.7637343,-1.8596435,-0.49356523,-1.7194724,-2.0851908,0.11396706,0.0,-0.13005239,0.059618447,0.016314618,0.034847595,-0.6203817,0.093075745,0.35396147,3.643754,2.4355428,-0.66404015,-2.6909876,0.09131726,441.86426,0.8098445,0.3354578,0.40245166,0.14409566,0.12029139,inf,inf,inf,inf,1,1,1,1,2,0,2,1,3,1,1,0
58104648,48617932,34.03371020000001,108.7637343,-1.8613213,-0.48439315,-1.7249991,-2.0851908,0.11396706,0.0,0.0140321255,0.101958916,0.031218873,0.040503442,-0.6203817,0.093075745,0.35396147,-0.37699473,-1.2364378,-0.51420504,-2.6822054,0.09131726,441.86426,0.81537116,0.3285511,0.39973032,0.13976608,0.117807575,inf,inf,inf,inf,1,1,1,1,2,0,2,1,3,1,1,0
58204029,48617932,34.03371020000001,108.7637343,-1.8547662,-0.4735361,-1.7269557,-2.0851908,0.11396706,0.0,0.08899093,0.10775504,0.04825087,0.051222257,-0.6203817,0.093075745,0.35396147,0.6582839,0.55055904,-1.5924274,-2.6758642,0.09131726,441.86426,0.81732774,0.33675426,0.40210843,0.1444957,0.119300045,inf,inf,inf,inf,1,1,1,1,2,0,2,1,3,1,1,0
58303323,48617932,34.03371020000001,108.7637343,-1.8487455,-0.46134302,-1.7294676,-2.0851908,0.11396706,0.0,0.10518149,0.1211831,0.041705966,0.038622815,-0.6203817,0.093075745,0.35396147,-2.1177974,-0.87270904,1.6117336,-2.6727278,0.09131726,441.86426,0.8198397,0.32980844,0.39866835,0.13989152,0.11670653,inf,inf,inf,inf,1,1,1,1,2,0,2,1,3,1,1,0
58402669,48617932,34.03371020000001,108.7637343,-1.846108,-0.45008028,-1.7334862,-2.0851908,0.11396706,0.0,0.09176899,0.1183975,0.032759625,0.023529684,-0.6203817,0.093075745,0.35396147,-0.81793296,1.9509948,-0.41202682,-2.6709244,0.09131726,441.86426,0.82385826,0.33806208,0.40366405,0.1446705,0.11852179,inf,inf,inf,inf,1,1,1,1,2,0,2,1,3,1,1,0
58502108,48617932,34.03371020000001,108.7637343,-1.8483673,-0.4430552,-1.7354629,-2.0851908,0.11396706,0.0,0.06277304,0.09541027,0.027060699,0.014713936,-0.6203817,0.093075745,0.35396147,-0.82104623,-0.3591159,-0.88472956,-2.6701157,0.09131726,441.86426,0.825835,0.33360878,0.40020564,0.14035855,0.11598659,inf,inf,inf,inf,1,1,1,1,2,0,2,1,3,1,1,0
58596368,48617932,34.03371020000001,108.7637343,-1.8560115,-0.44167444,-1.735307,-2.0851908,0.11396706,0.0,0.03944946,0.07429439,0.024996018,0.011937504,-0.6203817,0.093075745,0.35396147,1.4435023,0.8552587,-1.7336553,-2.6743407,0.09131726,441.86426,0.82567906,0.3411057,0.40176332,0.14460143,0.11722683,inf,inf,inf,inf,1,1,1,1,2,0,2,1,3,1,1,0
58695756,48617932,34.03371020000001,108.7637343,-1.8683959,-0.44399226,-1.7344675,-2.0851908,0.11396706,0.0,0.0044780313,0.04536589,-0.021814043,-0.032499857,-0.6203817,0.093075745,0.35396147,-1.414416,-2.5076106,0.1516339,-2.6839457,0.09131726,441.86426,0.8248396,0.3387056,0.39839983,0.14072956,0.11480881,inf,inf,inf,inf,1,1,1,1,2,0,2,1,3,1,1,0
58800010,48617932,34.03371020000001,108.7637343,-1.8852787,-0.45056123,-1.738502,-2.0851908,0.11396706,0.0,-0.016757024,0.02417218,-0.0764916,-0.08366259,-0.6203817,0.093075745,0.35396147,0.29717305,-3.4741123,-0.65220946,-2.7003903,0.09131726,441.86426,0.8288741,0.34715313,0.40067306,0.14549956,0.11623417,inf,inf,inf,inf,1,1,1,1,2,0,2,1,3,1,1,0
58899371,48617932,34.03371020000001,108.7637343,-1.9040003,-0.45955706,-1.7479216,-2.0851908,0.11396706,0.0,-0.032337427,0.023746772,-0.12878788,-0.13411132,-0.6203817,0.093075745,0.35396147,-0.48206997,1.8616394,0.35305285,-2.723792,0.09131726,441.86426,0.8382937,0.34482038,0.39737344,0.14158608,0.11388924,inf,inf,inf,inf,1,1,1,1,2,0,2,1,3,1,1,0
58998684,48617932,34.03371020000001,108.7637343,-1.9256271,-0.47107166,-1.7658223,-2.0851908,0.11396706,0.0,-0.040991884,0.0007387947,-0.19304468,-0.19857107,-0.6203817,0.093075745,0.35396147,-0.13584049,-1.8834385,-0.13465281,-2.748873,0.09131726,441.86426,0.8561944,0.35339478,0.40224513,0.14672728,0.11567154,inf,inf,inf,inf,1,1,1,1,2,0,2,1,3,1,1,0
59098021,48617932,34.03371020000001,108.7637343,-1.9486558,-0.48448083,-1.7894182,-2.0851908,0.11396706,0.0,-0.0392159,0.0026781233,-0.22879204,-0.23554303,-0.6203817,0.093075745,0.35396147,0.14774333,-0.44323242,-1.1259397,-2.770173,0.09131726,441.86426,0.8797903,0.35077283,0.3989421,0.14263466,0.113363154,inf,inf,inf,inf,1,1,1,1,2,0,2,1,3,1,1,0
59197363,48617932,34.03371020000001,108.7637343,-1.9738276,-0.49996388,-1.818016,-2.0851908,0.11396706,0.0,-0.038486317,0.0012193553,-0.2758769,-0.28529996,-0.6203817,0.093075745,0.35396147,0.19983917,0.1688133,-1.8042343,-2.787449,0.09131726,441.86426,0.90838814,0.35944805,0.40119648,0.14758644,0.11476296,inf,inf,inf,inf,1,1,1,1,2,0,2,1,3,1,1,0
59296749,48617932,34.03371020000001,108.7637343,-1.9968666,-0.5173416,-1.8558226,-2.0851908,0.11396706,0.0,-0.01682302,0.0045587393,-0.4036097,-0.41617286,-0.6203817,0.093075745,0.35396147,1.4733002,1.9030199,-3.1307697,-2.802575,0.09131726,441.86426,0.94619465,0.3559955,0.39794454,0.1431581,0.11248341,inf,inf,inf,inf,1,1,1,1,2,0,2,1,3,1,1,0
59396034,48617932,34.03371020000001,108.7637343,-2.018883,-0.5381709,-1.9108906,-2.0851908,0.11396706,0.0,-0.0060330294,-0.008806942,-0.58312887,-0.59939176,-0.6203817,0.093075745,0.35396147,-1.561543,-1.9667537,-0.5791432,-2.8180006,0.09131726,441.86426,1.0012627,0.36472672,0.40014625,0.1482205,0.11386259,inf,inf,inf,inf,1,1,1,1,2,0,2,1,3,1,1,0
59505304,48617932,34.03371020000001,108.7637343,-2.0422025,-0.5620209,-1.9886792,-2.0851908,0.11396706,0.0,0.02899215,0.010852352,-0.76465034,-0.7809168,-0.6203817,0.093075745,0.35396147,1.4861506,0.9490076,-1.1792945,-2.8345342,0.09131726,441.86426,1.0790513,0.3610052,0.39770663,0.14467096,0.11194706,inf,inf,inf,inf,1,1,1,1,2,0,2,1,3,1,1,0
59594901,48617932,34.03371020000001,108.7637343,-2.0608177,-0.58373713,-2.063249,-2.0851908,0.11396706,0.0,0.04691506,-0.0035418924,-0.8530173,-0.86806864,-0.6203817,0.093075745,0.35396147,-0.11523315,-1.4564707,0.8027594,-2.8487663,0.09131726,441.86426,1.1536212,0.36892098,0.39914396,0.14980026,0.11318164,inf,inf,inf,inf,1,1,1,1,2,0,2,1,3,1,1,0
59699012,48617932,34.03371020000001,108.7637343,-2.0777678,-0.6063521,-2.1543539,-2.0851908,0.11396706,0.0,0.067065604,0.006438758,-0.87155336,-0.8841611,-0.6203817,0.093075745,0.35396147,0.3654583,-2.3771057,-0.7734792,-2.8649247,0.09131726,441.86426,1.244726,0.3633625,0.3985512,0.14533007,0.11137614,inf,inf,inf,inf,1,1,1,1,2,0,2,1,3,1,1,0
59798356,48617932,34.03371020000001,108.7637343,-2.0934682,-0.63026977,-2.2358685,-2.0851908,0.11396706,0.0,0.08246755,0.023652883,-0.8085482,-0.8169027,-0.6203817,0.093075745,0.35396147,-0.4174354,3.5913858,1.1440841,-2.8782792,0.09131726,441.86426,1.3262405,0.37213475,0.40073496,0.15085486,0.11276616,inf,inf,inf,inf,1,1,1,1,2,0,2,1,3,1,1,0
59897687,48617932,34.03371020000001,108.7637343,-2.109109,-0.6497693,-2.311386,-2.0851908,0.11396706,0.0,0.1025491,0.024706641,-0.781278,-0.7846663,-0.6203817,0.093075745,0.35396147,-0.56742144,-2.7720485,1.0830715,-2.8857903,0.09131726,441.86426,1.4017582,0.36542383,0.39756972,0.14536686,0.11054759,inf,inf,inf,inf,1,1,1,1,2,0,2,1,3,1,1,0
59997024,48617932,34.03371020000001,108.7637343,-2.1268125,-0.6661658,-2.387147,-2.0851908,0.11396706,0.0,0.11741124,0.045940604,-0.8221339,-0.8210151,-0.6203817,0.093075745,0.35396147,0.6319764,-1.8971759,-0.63010395,-2.8893876,0.09131726,441.86426,1.477519,0.37414232,0.3997185,0.1499194,0.111750565,inf,inf,inf,inf,1,1,1,1,2,0,2,1,3,1,1,0
60096393,48617932,34.03371020000001,108.7637343,-2.1483638,-0.6877204,-2.4747558,-2.0851908,0.11396706,0.0,0.1298693,0.074204594,-0.97338206,-0.9710778,-0.6203817,0.093075745,0.35396147,-1.4339225,1.932758,-1.1244192,-2.8906503,0.09131726,441.86426,1.5651278,0.3664283,0.39679843,0.14482185,0.10972705,inf,inf,inf,inf,1,1,1,1,2,0,2,1,3,1,1,0
60195720,48617932,34.03371020000001,108.7637343,-2.1761107,-0.7164492,-2.584448,-2.0851908,0.11396706,0.0,0.1491747,0.08864861,-1.2155054,-1.2141273,-0.6203817,0.093075745,0.35396147,-0.61894804,-0.8998006,-2.1471505,-2.8893015,0.09131726,441.86426,1.6748202,0.3750959,0.39890712,0.15004696,0.11100036,inf,inf,inf,inf,1,1,1,1,2,0,2,1,3,1,1,0
60295038,48617932,34.03371020000001,108.7637343,-2.1904066,-0.73510784,-2.7163439,-2.0851908,0.11396706,0.0,0.18054156,0.11395231,-1.4971799,-1.4920285,-0.6203817,0.093075745,0.35396147,2.20892,0.7352293,-2.5833418,-2.886667,0.09131726,441.86426,1.806716,0.36598706,0.39578938,0.14514819,0.10898963,inf,inf,inf,inf,1,1,1,1,2,0,2,1,3,1,1,0
60404307,48617932,34.03371020000001,108.7637343,-2.1999326,-0.76827097,-2.88702,-2.0851908,0.11396706,0.0,0.2071479,0.14849468,-1.7456048,-1.7332871,-0.6203817,0.093075745,0.35396147,0.62679946,3.4957473,-3.1739864,-2.8832498,0.09131726,441.86426,1.9773922,0.3754496,0.3985932,0.15205146,0.11059204,inf,inf,inf,inf,1,1,1,1,2,0,2,1,3,1,1,0
60493720,48617932,34.03371020000001,108.7637343,-2.2070353,-0.7880584,-3.0396554,-2.0851908,0.11396706,0.0,0.22239302,0.15080018,-1.8775799,-1.856296,-0.6203817,0.093075745,0.35396147,-0.82885975,-1.6378648,-2.0067825,-2.8814332,0.09131726,441.86426,2.1300275,0.36436453,0.3973525,0.14672083,0.10879562,inf,inf,inf,inf,1,1,1,1,2,0,2,1,3,1,1,0
60602982,48617932,34.03371020000001,108.7637343,-2.2239208,-0.80974996,-3.232158,-2.0851908,0.11396706,0.0,0.23934838,0.16392869,-1.9478908,-1.9115072,-0.6203817,0.093075745,0.35396147,0.3215233,-3.6821134,-0.29757726,-2.8820171,0.09131726,441.86426,2.32253,0.37374127,0.40016848,0.15337287,0.11033941,inf,inf,inf,inf,1,1,1,1,2,0,2,1,3,1,1,0
60702320,48617932,34.03371020000001,108.7637343,-2.2417293,-0.82832307,-3.405467,-2.0851908,0.11396706,0.0,0.2415437,0.18731442,-1.9278318,-1.875402,-0.6203817,0.093075745,0.35396147,-0.11959019,-0.5915376,-1.05394,-2.883976,0.09131726,441.86426,2.495839,0.36218902,0.39740372,0.14823204,0.10855429,inf,inf,inf,inf,1,1,1,1,2,0,2,1,3,1,1,0
60801685,48617932,34.03371020000001,108.7637343,-2.2600372,-0.8447331,-3.571064,-2.0851908,0.11396706,0.0,0.2447229,0.19224592,-1.8145797,-1.7469639,-0.6203817,0.093075745,0.35396147,-1.5000966,-2.456543,3.2709947,-2.8873527,0.09131726,441.86426,2.661436,0.3706757,0.39947408,0.1533921,0.10973796,inf,inf,inf,inf,1,1,1,1,2,0,2,1,3,1,1,0
60901004,48617932,34.03371020000001,108.7637343,-2.2728922,-0.8568425,-3.7233784,-2.0851908,0.11396706,0.0,0.2497505,0.20501915,-1.6412171,-1.5606092,-0.6203817,0.093075745,0.35396147,-1.2310991,-0.55944633,3.4710171,-2.8913045,0.09131726,441.86426,2.8137505,0.35731193,0.39689532,0.14741474,0.10794133,inf,inf,inf,inf,1,1,1,1,2,0,2,1,3,1,1,0
60995365,48617932,34.03371020000001,108.7637343,-2.2820318,-0.8664838,-3.8480856,-2.0851908,0.11396706,0.0,0.26052758,0.21701398,-1.410952,-1.3186526,-0.6203817,0.093075745,0.35396147,0.34532714,1.048402,2.1532168,-2.8948767,0.09131726,441.86426,2.9384577,0.36483297,0.39820376,0.1512768,0.10880375,inf,inf,inf,inf,1,1,1,1,2,0,2,1,3,1,1,0
61104635,48617932,34.03371020000001,108.7637343,-2.2916965,-0.8767574,-3.9569438,-2.0851908,0.11396706,0.0,0.26662266,0.22323829,-1.0660868,-0.95841914,-0.6203817,0.093075745,0.35396147,0.58181065,-0.34237698,2.5046365,-2.8987508,0.09131726,441.86426,3.0473158,0.35127637,0.3965308,0.14546998,0.1072099,inf,inf,inf,inf,1,1,1,1,2,0,2,1,3,1,1,0
61194162,48617932,34.03371020000001,108.7637343,-2.2977858,-0.88402563,-4.0145745,-2.0851908,0.11396706,0.0,0.27263862,0.22780657,-0.74624246,-0.62660164,-0.6203817,0.093075745,0.35396147,0.27534482,0.25690484,3.9780867,-2.9012125,0.09131726,441.86426,3.1049466,0.3587033,0.40040493,0.1488739,0.10830285,inf,inf,inf,inf,1,1,1,1,2,0,2,1,3,1,1,0
61298343,48617932,34.03371020000001,108.7637343,-2.305418,-0.88863015,-4.0478377,-2.0851908,0.11396706,0.0,0.2687772,0.23724233,-0.3958503,-0.26439977,-0.6203817,0.093075745,0.35396147,-0.39851668,1.0554637,2.8906415,-2.903101,0.09131726,441.86426,3.1382098,0.34232637,0.39734054,0.14128718,0.10611836,inf,inf,inf,inf,1,1,1,1,2,0,2,1,3,1,1,0
61397684,48617932,34.03371020000001,108.7637343,-2.3193812,-0.89413965,-4.0477977,-2.0851908,0.11396706,0.0,0.275306,0.24701981,-0.13568723,0.0059960317,-0.6203817,0.093075745,0.35396147,0.04187913,0.93314946,1.8416756,-2.903808,0.09131726,441.86426,3.1381698,0.35030848,0.39928374,0.14477113,0.10701209,inf,inf,inf,inf,1,1,1,1,2,0,2,1,3,1,1,0
61497021,48617932,34.03371020000001,108.7637343,-2.3209875,-0.900443,-4.0224113,-2.0851908,0.11396706,0.0,0.28436834,0.24820001,0.02940498,0.18428472,-0.6203817,0.093075745,0.35396147,-0.25344226,-2.7622478,0.42842475,-2.9030116,0.09131726,441.86426,3.1127834,0.33701572,0.3962689,0.13838515,0.10495745,inf,inf,inf,inf,1,1,1,1,2,0,2,1,3,1,1,0
61596355,48617932,34.03371020000001,108.7637343,-2.3116593,-0.9052828,-3.984777,-2.0851908,0.11396706,0.0,0.2992528,0.2692066,0.1005221,0.26775783,-0.6203817,0.093075745,0.35396147,-1.4603298,0.07175094,1.605702,-2.902578,0.09131726,441.86426,3.075149,0.3448636,0.39815146,0.14227998,0.10590249,inf,inf,inf,inf,1,1,1,1,2,0,2,1,3,1,1,0
61695723,48617932,34.03371020000001,108.7637343,-2.3039255,-0.9003315,-3.9470356,-2.0851908,0.11396706,0.0,0.318145,0.28891316,0.07152861,0.24848475,-0.6203817,0.093075745,0.35396147,-1.1236033,0.18129697,0.18280621,-2.9003706,0.09131726,441.86426,3.0374076,0.33012673,0.3977374,0.13674763,0.10431396,inf,inf,inf,inf,1,1,1,1,2,0,2,1,3,1,1,0
61804964,48617932,34.03371020000001,108.7637343,-2.29969,-0.8864633,-3.9110951,-2.0851908,0.11396706,0.0,0.33141258,0.3069861,0.006310958,0.19242084,-0.6203817,0.093075745,0.35396147,-0.4977806,1.263442,-0.6132661,-2.897561,0.09131726,441.86426,3.0014672,0.3386554,0.40030715,0.14193884,0.10551852,inf,inf,inf,inf,1,1,1,1,2,0,2,1,3,1,1,0
61894367,48617932,34.03371020000001,108.7637343,-2.2969093,-0.87399465,-3.8867118,-2.0851908,0.11396706,0.0,0.2984632,0.2801509,-0.037335545,0.15528253,-0.6203817,0.093075745,0.35396147,1.2199533,1.4363679,-2.165074,-2.8947368,0.09131726,441.86426,2.977084,0.32335898,0.3966164,0.13669927,0.10357974,inf,inf,inf,inf,1,1,1,1,2,0,2,1,3,1,1,0
62003780,48617932,34.03371020000001,108.7637343,-2.2999535,-0.8600347,-3.8652027,-2.0851908,0.11396706,0.0,0.21350877,0.2537941,-0.100042365,0.096702814,-0.6203817,0.093075745,0.35396147,-0.16929191,-0.7702968,-2.2569184,-2.8943503,0.09131726,441.86426,2.9555748,0.33182523,0.399135,0.14230224,0.104807585,inf,inf,inf,inf,1,1,1,1,2,0,2,1,3,1,1,0
62098010,48617932,34.03371020000001,108.7637343,-2.3105261,-0.8484478,-3.8533437,-2.0851908,0.11396706,0.0,0.06837743,0.18506703,-0.14123617,0.05896984,-0.6203817,0.093075745,0.35396147,-3.60482,-2.0725234,1.3027236,-2.8953397,0.09131726,441.86426,2.9437158,0.31754336,0.39549172,0.13708745,0.10290492,inf,inf,inf,inf,1,1,1,1,2,0,2,1,3,1,1,0
62197346,48617932,34.03371020000001,108.7637343,-2.3408456,-0.8417508,-3.8426754,-2.0851908,0.11396706,0.0,-0.14053702,0.11477575,-0.18740825,0.017565504,-0.6203817,0.093075745,0.35396147,-3.9958665,-0.44861603,1.1985736,-2.8962684,0.09131726,441.86426,2.9330475,0.32519975,0.39727288,0.14237793,0.10396685,inf,inf,inf,inf,1,1,1,1,2,0,2,1,3,1,1,0
62296686,48617932,34.03371020000001,108.7637343,-2.386396,-0.8371151,-3.838309,-2.0851908,0.11396706,0.0,-0.3362782,0.02406389,-0.23569207,-0.02795355,-0.6203817,0.093075745,0.35396147,-1.8359058,-0.16072406,0.48153535,-2.8972664,0.09131726,441.86426,2.9286811,0.31253505,0.39692745,0.1376898,0.10255347,inf,inf,inf,inf,1,1,1,1,2,0,2,1,3,1,1,0
62396023,48617932,34.03371020000001,108.7637343,-2.4495418,-0.8346868,-3.835508,-2.0851908,0.11396706,0.0,-0.536024,-0.028370073,-0.21303318,-0.0029542893,-0.6203817,0.093075745,0.35396147,-1.6616118,0.4797288,1.8864017,-2.8962457,0.09131726,441.86426,2.9258802,0.32021245,0.39871863,0.14287136,0.10357536,inf,inf,inf,inf,1,1,1,1,2,0,2,1,3,1,1,0
62505293,48617932,34.03371020000001,108.7637343,-2.5300732,-0.8361491,-3.827366,-2.0851908,0.11396706,0.0,-0.66076964,-0.06920483,-0.08223971,0.12695688,-0.6203817,0.093075745,0.35396147,0.022427298,-0.92513865,0.21522659,-2.8951902,0.09131726,441.86426,2.9177382,0.30900413,0.3965179,0.1387384,0.102043375,inf,inf,inf,inf,1,1,1,1,2,0,2,1,3,1,1,0
62594695,48617932,34.03371020000001,108.7637343,-2.6000893,-0.84077656,-3.8099966,-2.0851908,0.11396706,0.0,-0.71874595,-0.10490677,0.030918384,0.23777814,-0.6203817,0.093075745,0.35396147,0.054421782,-1.3745563,-0.17324306,-2.8974512,0.09131726,441.86426,2.9003687,0.3159702,0.39759168,0.14305806,0.10285453,inf,inf,inf,inf,1,1,1,1,2,0,2,1,3,1,1,0
62703971,48617932,34.03371020000001,108.7637343,-2.683431,-0.84317386,-3.787939,-2.0851908,0.11396706,0.0,-0.70143384,-0.09538213,0.04804624,0.24595295,-0.6203817,0.093075745,0.35396147,1.2211523,1.4014976,-1.1167927,-2.9008024,0.09131726,441.86426,2.8783112,0.3053594,0.3954264,0.1381435,0.10128802,inf,inf,inf,inf,1,1,1,1,2,0,2,1,3,1,1,0
62793434,48617932,34.03371020000001,108.7637343,-2.7438085,-0.84198844,-3.7762728,-2.0851908,0.11396706,0.0,-0.6246639,-0.08205662,-0.00081455195,0.18699923,-0.6203817,0.093075745,0.35396147,0.6046875,1.2380195,-0.8510326,-2.9035385,0.09131726,441.86426,2.8666449,0.31234536,0.39646393,0.14221585,0.10207481,inf,inf,inf,inf,1,1,1,1,2,0,2,1,3,1,1,0
62897674,48617932,34.03371020000001,108.7637343,-2.803057,-0.8418356,-3.7732909,-2.0851908,0.11396706,0.0,-0.54262775,-0.070494905,-0.026189895,0.14593981,-0.6203817,0.093075745,0.35396147,0.38090304,-0.3494542,-0.9738018,-2.9050717,0.09131726,441.86426,2.863663,0.30147177,0.3936705,0.137428,0.100457214,inf,inf,inf,inf,1,1,1,1,2,0,2,1,3,1,1,0
62997011,48617932,34.03371020000001,108.7637343,-2.8487036,-0.842645,-3.7749689,-2.0851908,0.11396706,0.0,-0.4477096,-0.07160658,-0.019268034,0.13521287,-0.6203817,0.093075745,0.35396147,0.24605802,-0.48271477,0.7536635,-2.9091249,0.09131726,441.86426,2.865341,0.30926862,0.39535788,0.142624,0.101454936,inf,inf,inf,inf,1,1,1,1,2,0,2,1,3,1,1,0
63096349,48617932,34.03371020000001,108.7637343,-2.887084,-0.8424557,-3.7765448,-2.0851908,0.11396706,0.0,-0.40511218,-0.07296446,-0.007227686,0.13089758,-0.6203817,0.093075745,0.35396147,-2.1660614,-1.4428837,1.3357465,-2.9144535,0.09131726,441.86426,2.866917,0.29874438,0.39511183,0.13766654,0.10014339,inf,inf,inf,inf,1,1,1,1,2,0,2,1,3,1,1,0
63195693,48617932,34.03371020000001,108.7637343,-2.9255338,-0.8391003,-3.7811413,-2.0851908,0.11396706,0.0,-0.42432743,-0.075047836,-0.01719333,0.103637554,-0.6203817,0.093075745,0.35396147,0.19624373,-1.3112389,-0.25695837,-2.9181828,0.09131726,441.86426,2.8715134,0.30661008,0.39679977,0.14239278,0.10108902,inf,inf,inf,inf,1,1,1,1,2,0,2,1,3,1,1,0
63295023,48617932,34.03371020000001,108.7637343,-2.9714644,-0.8390855,-3.7849422,-2.0851908,0.11396706,0.0,-0.4785786,-0.08712024,-0.041084964,0.06604764,-0.6203817,0.093075745,0.35396147,1.6386806,0.8052528,-2.434672,-2.9214025,0.09131726,441.86426,2.8753142,0.2965021,0.39405778,0.13754198,0.09952428,inf,inf,inf,inf,1,1,1,1,2,0,2,1,3,1,1,0
63404301,48617932,34.03371020000001,108.7637343,-3.0320387,-0.84328914,-3.7924864,-2.0851908,0.11396706,0.0,-0.5688856,-0.10228809,-0.0542164,0.03927584,-0.6203817,0.093075745,0.35396147,-0.2156452,1.5645322,-0.9814622,-2.923995,0.09131726,441.86426,2.8828585,0.30526644,0.3963885,0.14293437,0.10062188,inf,inf,inf,inf,1,1,1,1,2,0,2,1,3,1,1,0
63493698,48617932,34.03371020000001,108.7637343,-3.094095,-0.84732085,-3.7972178,-2.0851908,0.11396706,0.0,-0.67015356,-0.11970053,-0.0408197,0.043874305,-0.6203817,0.093075745,0.35396147,0.7245118,-0.083399795,-1.1704502,-2.922761,0.09131726,441.86426,2.88759,0.29459372,0.39301243,0.13772514,0.098940395,inf,inf,inf,inf,1,1,1,1,2,0,2,1,3,1,1,0
63603048,48617932,34.03371020000001,108.7637343,-3.1807961,-0.85244006,-3.7998679,-2.0851908,0.11396706,0.0,-0.713494,-0.13756435,-0.033025887,0.044553846,-0.6203817,0.093075745,0.35396147,0.20083827,2.445872,-0.11191465,-2.9208426,0.09131726,441.86426,2.89024,0.30344734,0.3953074,0.14311835,0.10002124,inf,inf,inf,inf,1,1,1,1,2,0,2,1,3,1,1,0
63697339,48617932,34.03371020000001,108.7637343,-3.2656252,-0.8596423,-3.802648,-2.0851908,0.11396706,0.0,-0.8215677,-0.14822945,-0.018585635,0.052209545,-0.6203817,0.093075745,0.35396147,-1.866683,1.1476942,-0.3424732,-2.9161906,0.09131726,441.86426,2.8930202,0.2929837,0.3944586,0.13775873,0.098647624,inf,inf,inf,inf,1,1,1,1,2,0,2,1,3,1,1,0
63796693,48617932,34.03371020000001,108.7637343,-3.3681378,-0.8670052,-3.8072426,-2.0851908,0.11396706,0.0,-0.88195145,-0.17661025,-0.0046236278,0.05704464,-0.6203817,0.093075745,0.35396147,-1.4535246,-2.0451179,1.6913742,-2.9096196,0.09131726,441.86426,2.8976147,0.30107683,0.39608273,0.14254402,0.09956827,inf,inf,inf,inf,1,1,1,1,2,0,2,1,3,1,1,0
63896206,48617932,34.03371020000001,108.7637343,-3.4732702,-0.87870264,-3.8106627,-2.0851908,0.11396706,0.0,-0.9467463,-0.17983206,0.000259571,0.05229029,-0.6203817,0.093075745,0.35396147,0.7748902,2.5820482,-2.2538745,-2.904013,0.09131726,441.86426,2.9010348,0.2916224,0.3934202,0.13779907,0.09811476,inf,inf,inf,inf,1,1,1,1,2,0,2,1,3,1,1,0
63995352,48617932,34.03371020000001,108.7637343,-3.579003,-0.8914604,-3.81711,-2.0851908,0.11396706,0.0,-1.0047185,-0.1834016,-0.009123048,0.032916218,-0.6203817,0.093075745,0.35396147,-1.1269144,2.460043,0.6322364,-2.899105,0.09131726,441.86426,2.9074821,0.2997898,0.39502326,0.14256503,0.09902545,inf,inf,inf,inf,1,1,1,1,2,0,2,1,3,1,1,0
64104622,48617932,34.03371020000001,108.7637343,-3.7027478,-0.9093401,-3.8215868,-2.0851908,0.11396706,0.0,-1.034961,-0.20362803,-0.0062404606,0.028944632,-0.6203817,0.093075745,0.35396147,-0.25381818,-0.45975444,-0.04766245,-2.8935795,0.09131726,441.86426,2.911959,0.29130778,0.39305043,0.13812838,0.097711086,inf,inf,inf,inf,1,1,1,1,2,0,2,1,3,1,1,0
64198993,48617932,34.03371020000001,108.7637343,-3.810182,-0.9255426,-3.8250804,-2.0851908,0.11396706,0.0,-0.9991975,-0.20226967,0.00039500717,0.030482752,-0.6203817,0.093075745,0.35396147,-0.9331223,-0.3272481,0.90439993,-2.8882473,0.09131726,441.86426,2.9154525,0.298745,0.3939727,0.14241967,0.098463275,inf,inf,inf,inf,1,1,1,1,2,0,2,1,3,1,1,0
64298330,48617932,34.03371020000001,108.7637343,-3.9141908,-0.9412409,-3.829479,-2.0851908,0.11396706,0.0,-0.8950116,-0.18232004,-0.0078063975,0.016456917,-0.6203817,0.093075745,0.35396147,2.441858,1.6382271,-0.3419871,-2.8816426,0.09131726,441.86426,2.919851,0.2895797,0.3913865,0.13741598,0.09702991,inf,inf,inf,inf,1,1,1,1,2,0,2,1,3,1,1,0
64397701,48617932,34.03371020000001,108.7637343,-4.0063367,-0.9552271,-3.8338826,-2.0851908,0.11396706,0.0,-0.8105955,-0.17901342,0.0023498442,0.021380171,-0.6203817,0.093075745,0.35396147,1.7008339,-0.43921363,-0.3779866,-2.875556,0.09131726,441.86426,2.9242547,0.29787746,0.39293158,0.14226379,0.09792689,inf,inf,inf,inf,1,1,1,1,2,0,2,1,3,1,1,0
64497007,48617932,34.03371020000001,108.7637343,-4.085285,-0.97009975,-3.8363323,-2.0851908,0.11396706,0.0,-0.6916408,-0.18250707,0.015401587,0.030042643,-0.6203817,0.093075745,0.35396147,1.6652882,-1.574195,-0.0051866877,-2.8725822,0.09131726,441.86426,2.9267044,0.28880253,0.39038965,0.13718387,0.09651412,inf,inf,inf,inf,1,1,1,1,2,0,2,1,3,1,1,0
64596350,48617932,34.03371020000001,108.7637343,-4.152967,-0.98498815,-3.8393762,-2.0851908,0.11396706,0.0,-0.63115245,-0.17262226,0.030925404,0.04007021,-0.6203817,0.093075745,0.35396147,-0.47147655,0.96962345,0.958664,-2.8726592,0.09131726,441.86426,2.9297483,0.29715356,0.39440373,0.14178911,0.097661845,inf,inf,inf,inf,1,1,1,1,2,0,2,1,3,1,1,0
64695837,48617932,34.03371020000001,108.7637343,-4.2203455,-0.99871224,-3.837611,-2.0851908,0.11396706,0.0,-0.63759303,-0.17887537,0.035763167,0.043725073,-0.6203817,0.093075745,0.35396147,-0.5369632,3.1359046,-0.7354731,-2.8732357,0.09131726,441.86426,2.927983,0.28809842,0.39184886,0.13674314,0.09626369,inf,inf,inf,inf,1,1,1,1,2,0,2,1,3,1,1,0
64795017,48617932,34.03371020000001,108.7637343,-4.294947,-1.0108248,-3.8312147,-2.0851908,0.11396706,0.0,-0.7017612,-0.20605704,0.027090402,0.038264338,-0.6203817,0.093075745,0.35396147,-2.0661316,-2.5820184,0.51468766,-2.8737106,0.09131726,441.86426,2.9215868,0.29648754,0.39337465,0.14133504,0.09713233,inf,inf,inf,inf,1,1,1,1,2,0,2,1,3,1,1,0
64894355,48617932,34.03371020000001,108.7637343,-4.381104,-1.0236309,-3.8243394,-2.0851908,0.11396706,0.0,-0.8220203,-0.2163567,0.0139512485,0.030131903,-0.6203817,0.093075745,0.35396147,-1.7417701,2.7013998,-0.70366526,-2.8755925,0.09131726,441.86426,2.9147115,0.28747523,0.39085487,0.13633674,0.095767036,inf,inf,inf,inf,1,1,1,1,2,0,2,1,3,1,1,0
65003625,48617932,34.03371020000001,108.7637343,-4.497024,-1.0387433,-3.8145337,-2.0851908,0.11396706,0.0,-0.94887185,-0.24188027,0.0014287974,0.025223827,-0.6203817,0.093075745,0.35396147,-1.6286926,1.0641683,0.4364359,-2.876885,0.09131726,441.86426,2.9049058,0.29677767,0.39300168,0.14161228,0.0967747,inf,inf,inf,inf,1,1,1,1,2,0,2,1,3,1,1,0
65102963,48617932,34.03371020000001,108.7637343,-4.6089616,-1.0526265,-3.804687,-2.0851908,0.11396706,0.0,-1.0475774,-0.2430027,0.0023106835,0.034008376,-0.6203817,0.093075745,0.35396147,-1.0760878,0.0006224714,-0.680825,-2.8768642,0.09131726,441.86426,2.895059,0.28774273,0.39050236,0.13667141,0.09543558,inf,inf,inf,inf,1,1,1,1,2,0,2,1,3,1,1,0
65202310,48617932,34.03371020000001,108.7637343,-4.7251124,-1.0667276,-3.793655,-2.0851908,0.11396706,0.0,-1.0826348,-0.2671043,0.01658284,0.055107754,-0.6203817,0.093075745,0.35396147,-0.041906852,-2.3350215,-0.6907933,-2.8756545,0.09131726,441.86426,2.884027,0.29626876,0.39198443,0.14146182,0.09629214,inf,inf,inf,inf,1,1,1,1,2,0,2,1,3,1,1,0
65296672,48617932,34.03371020000001,108.7637343,-4.8357735,-1.0816326,-3.782254,-2.0851908,0.11396706,0.0,-1.0968984,-0.26933038,0.03767818,0.081663705,-0.6203817,0.093075745,0.35396147,0.19903944,-0.42469785,-1.0092804,-2.8741846,0.09131726,441.86426,2.872626,0.28640231,0.39131877,0.13602315,0.09509856,inf,inf,inf,inf,1,1,1,1,2,0,2,1,3,1,1,0
65396007,48617932,34.03371020000001,108.7637343,-4.9511724,-1.0956203,-3.7665205,-2.0851908,0.11396706,0.0,-1.0768195,-0.2626499,0.04489967,0.09612119,-0.6203817,0.093075745,0.35396147,1.3338108,-1.5752288,-0.5581255,-2.8698752,0.09131726,441.86426,2.8568926,0.2949016,0.3927934,0.14063412,0.0959447,inf,inf,inf,inf,1,1,1,1,2,0,2,1,3,1,1,0
65495507,48617932,34.03371020000001,108.7637343,-5.064653,-1.1152457,-3.7500007,-2.0851908,0.11396706,0.0,-1.0768319,-0.27128717,0.05736145,0.11427736,-0.6203817,0.093075745,0.35396147,-1.2401394,-0.90383834,-0.7998598,-2.8682213,0.09131726,441.86426,2.8403728,0.2859357,0.39033526,0.13581637,0.09465304,inf,inf,inf,inf,1,1,1,1,2,0,2,1,3,1,1,0
65594682,48617932,34.03371020000001,108.7637343,-5.1763997,-1.1399208,-3.7345219,-2.0851908,0.11396706,0.0,-1.057976,-0.27567506,0.05985644,0.120340094,-0.6203817,0.093075745,0.35396147,-1.0941567,1.2856667,1.1275898,-2.8685222,0.09131726,441.86426,2.824894,0.294462,0.39180118,0.140413,0.09549974,inf,inf,inf,inf,1,1,1,1,2,0,2,1,3,1,1,0
65703953,48617932,34.03371020000001,108.7637343,-5.2995653,-1.1653349,-3.7198737,-2.0851908,0.11396706,0.0,-1.038821,-0.283905,0.04195745,0.10486495,-0.6203817,0.093075745,0.35396147,0.79189444,-0.66216683,-0.80178744,-2.8681061,0.09131726,441.86426,2.8102458,0.28631786,0.3900019,0.13591282,0.09434929,inf,inf,inf,inf,1,1,1,1,2,0,2,1,3,1,1,0
65793408,48617932,34.03371020000001,108.7637343,-5.400893,-1.1843848,-3.7091742,-2.0851908,0.11396706,0.0,-1.0072894,-0.27223563,0.046803214,0.11064484,-0.6203817,0.093075745,0.35396147,0.74738157,2.6487498,1.0164015,-2.8674936,0.09131726,441.86426,2.7995462,0.29403138,0.39080772,0.14010796,0.09504385,inf,inf,inf,inf,1,1,1,1,2,0,2,1,3,1,1,0
65902628,48617932,34.03371020000001,108.7637343,-5.5146437,-1.2052177,-3.6963942,-2.0851908,0.11396706,0.0,-0.91361016,-0.25708243,0.045127083,0.10961662,-0.6203817,0.093075745,0.35396147,1.3829477,2.3413036,-0.48162916,-2.864217,0.09131726,441.86426,2.7867663,0.28590837,0.38903588,0.13571419,0.09391591,inf,inf,inf,inf,1,1,1,1,2,0,2,1,3,1,1,0
66002009,48617932,34.03371020000001,108.7637343,-5.6035028,-1.2210957,-3.6861567,-2.0851908,0.11396706,0.0,-0.78261966,-0.24388571,0.04031413,0.10377263,-0.6203817,0.093075745,0.35396147,1.0355451,-1.1985619,-0.9969581,-2.8599112,0.09131726,441.86426,2.7765288,0.29452392,0.39045405,0.14034273,0.09473803,inf,inf,inf,inf,1,1,1,1,2,0,2,1,3,1,1,0
66096335,48617932,34.03371020000001,108.7637343,-5.6743603,-1.2372881,-3.6801171,-2.0851908,0.11396706,0.0,-0.6631676,-0.22272818,0.056973387,0.115958594,-0.6203817,0.093075745,0.35396147,1.2975043,2.9579666,1.1296718,-2.8564873,0.09131726,441.86426,2.7704892,0.28464976,0.38985568,0.1349355,0.09360397,inf,inf,inf,inf,1,1,1,1,2,0,2,1,3,1,1,0
66195673,48617932,34.03371020000001,108.7637343,-5.7347846,-1.2552118,-3.6757944,-2.0851908,0.11396706,0.0,-0.5280955,-0.19777249,0.061250634,0.11274027,-0.6203817,0.093075745,0.35396147,1.6501666,1.3112079,-1.0601007,-2.8559563,0.09131726,441.86426,2.7661664,0.29321346,0.3912749,0.13959722,0.094424374,inf,inf,inf,inf,1,1,1,1,2,0,2,1,3,1,1,0
66295095,48617932,34.03371020000001,108.7637343,-5.7858896,-1.2672328,-3.6697052,-2.0851908,0.11396706,0.0,-0.38687795,-0.17889948,0.06073784,0.106840834,-0.6203817,0.093075745,0.35396147,2.4644322,-1.9069134,0.1841007,-2.8543777,0.09131726,441.86426,2.7600772,0.28432834,0.38889593,0.13493055,0.09319561,inf,inf,inf,inf,1,1,1,1,2,0,2,1,3,1,1,0
66399316,48617932,34.03371020000001,108.7637343,-5.828202,-1.2742295,-3.6621346,-2.0851908,0.11396706,0.0,-0.25359622,-0.15586473,0.048167814,0.09159464,-0.6203817,0.093075745,0.35396147,2.4580107,-0.6509114,-0.73197895,-2.8602395,0.09131726,441.86426,2.7525067,0.29290685,0.3902919,0.13955423,0.094013184,inf,inf,inf,inf,1,1,1,1,2,0,2,1,3,1,1,0
66498655,48617932,34.03371020000001,108.7637343,-5.8596497,-1.2769878,-3.6562755,-2.0851908,0.11396706,0.0,-0.18662784,-0.115939245,0.051850557,0.09182347,-0.6203817,0.093075745,0.35396147,-1.0317712,-0.36401615,0.06240674,-2.8767617,0.09131726,441.86426,2.7466476,0.2840298,0.38795018,0.13507858,0.09282288,inf,inf,inf,inf,1,1,1,1,2,0,2,1,3,1,1,0
66597990,48617932,34.03371020000001,108.7637343,-5.8859963,-1.2742025,-3.6505277,-2.0851908,0.11396706,0.0,-0.101650655,-0.08963765,0.057913035,0.0943766,-0.6203817,0.093075745,0.35396147,1.4034624,-0.69687206,-0.105011605,-2.9079256,0.09131726,441.86426,2.7408998,0.29262638,0.38933942,0.13982357,0.09364166,inf,inf,inf,inf,1,1,1,1,2,0,2,1,3,1,1,0
66697326,48617932,34.03371020000001,108.7637343,-5.9048014,-1.2724932,-3.6430514,-2.0851908,0.11396706,0.0,-0.042575113,-0.07376471,0.08718742,0.120120145,-0.6203817,0.093075745,0.35396147,1.1395718,1.2758517,-0.6430017,-2.958276,0.09131726,441.86426,2.7334235,0.2837186,0.38703123,0.13495994,0.09244954,inf,inf,inf,inf,1,1,1,1,2,0,2,1,3,1,1,0
66796665,48617932,34.03371020000001,108.7637343,-5.91936,-1.2710401,-3.6321263,-2.0851908,0.11396706,0.0,-0.035803575,-0.053470656,0.12888724,0.1587643,-0.6203817,0.093075745,0.35396147,-0.8150702,1.9619337,0.65685004,-3.021736,0.09131726,441.86426,2.7224984,0.29230848,0.39081147,0.13954802,0.09350914,inf,inf,inf,inf,1,1,1,1,2,0,2,1,3,1,1,0
66896000,48617932,34.03371020000001,108.7637343,-5.9389367,-1.2714851,-3.6151736,-2.0851908,0.11396706,0.0,-0.075486116,-0.07784991,0.14452918,0.17516536,-0.6203817,0.093075745,0.35396147,0.058352534,-2.6718445,0.17742053,-3.0719388,0.09131726,441.86426,2.7055457,0.28343856,0.38848943,0.1346127,0.09231301,inf,inf,inf,inf,1,1,1,1,2,0,2,1,3,1,1,0
66995338,48617932,34.03371020000001,108.7637343,-5.9686365,-1.2747332,-3.593453,-2.0851908,0.11396706,0.0,-0.1685505,-0.08276649,0.14945862,0.1843095,-0.6203817,0.093075745,0.35396147,-0.21996579,-0.30992776,0.10846469,-3.1041996,0.09131726,441.86426,2.683825,0.29203355,0.38985863,0.13910802,0.09311106,inf,inf,inf,inf,1,1,1,1,2,0,2,1,3,1,1,0
67094724,48617932,34.03371020000001,108.7637343,-6.0093193,-1.2766544,-3.572785,-2.0851908,0.11396706,0.0,-0.34102765,-0.09469803,0.15054362,0.18799372,-0.6203817,0.093075745,0.35396147,-2.1465235,-0.9101391,1.2644613,-3.1254914,0.09131726,441.86426,2.663157,0.28314093,0.38755685,0.13423224,0.09192508,inf,inf,inf,inf,1,1,1,1,2,0,2,1,3,1,1,0
67198981,48617932,34.03371020000001,108.7637343,-6.0709114,-1.276873,-3.5523055,-2.0851908,0.11396706,0.0,-0.57331395,-0.09040376,0.1237791,0.16391556,-0.6203817,0.093075745,0.35396147,-1.9915619,0.2441745,-0.4985591,-3.1413376,0.09131726,441.86426,2.6426775,0.29174626,0.3888817,0.13875337,0.09270679,inf,inf,inf,inf,1,1,1,1,2,0,2,1,3,1,1,0
67298317,48617932,34.03371020000001,108.7637343,-6.1506495,-1.2745965,-3.5341299,-2.0851908,0.11396706,0.0,-0.80966794,-0.08140099,0.09637166,0.13982977,-0.6203817,0.093075745,0.35396147,-2.233269,3.6684365,-0.25227144,3.1307948,0.09131726,441.86426,2.624502,0.28285745,0.38898125,0.13396738,0.09178842,inf,inf,inf,inf,1,1,1,1,2,0,2,1,3,1,1,0
67397654,48617932,34.03371020000001,108.7637343,-6.251836,-1.2687278,-3.5183904,-2.0851908,0.11396706,0.0,-1.050659,-0.07986263,0.10099525,0.14644074,-0.6203817,0.093075745,0.35396147,-2.4581978,2.1343243,0.988751,3.1239498,0.09131726,441.86426,2.6087625,0.29148445,0.39031872,0.13891222,0.09259521,inf,inf,inf,inf,1,1,1,1,2,0,2,1,3,1,1,0
67496992,48617932,34.03371020000001,108.7637343,-6.3753076,-1.2618643,-3.500802,-2.0851908,0.11396706,0.0,-1.2547919,-0.073231496,0.12236195,0.1699294,-0.6203817,0.093075745,0.35396147,-2.7591286,0.9109843,1.348246,3.120106,0.09131726,441.86426,2.5911741,0.2827027,0.38803542,0.13439755,0.09146027,inf,inf,inf,inf,1,1,1,1,2,0,2,1,3,1,1,0
67596329,48617932,34.03371020000001,108.7637343,-6.515238,-1.2552029,-3.4806232,-2.0851908,0.11396706,0.0,-1.3956776,-0.07143371,0.14028487,0.19007778,-0.6203817,0.093075745,0.35396147,-1.4814287,-0.31549746,-1.2881013,3.118529,0.09131726,441.86426,2.5709953,0.29135287,0.3893599,0.13911206,0.092251375,inf,inf,inf,inf,1,1,1,1,2,0,2,1,3,1,1,0
67695707,48617932,34.03371020000001,108.7637343,-6.66659,-1.2489377,-3.4605668,-2.0851908,0.11396706,0.0,-1.4662657,-0.07485818,0.16257808,0.21200842,-0.6203817,0.093075745,0.35396147,-0.42286205,-1.9403772,1.2270159,3.1194959,0.09131726,441.86426,2.5509388,0.28244442,0.3870997,0.13442537,0.091120675,inf,inf,inf,inf,1,1,1,1,2,0,2,1,3,1,1,0
67795003,48617932,34.03371020000001,108.7637343,-6.823006,-1.2436754,-3.4416823,-2.0851908,0.11396706,0.0,-1.4598268,-0.062631585,0.15621862,0.20335095,-0.6203817,0.093075745,0.35396147,2.2700336,3.455217,-1.48558,3.1214833,0.09131726,441.86426,2.5320544,0.2910946,0.38839552,0.13916148,0.09190562,inf,inf,inf,inf,1,1,1,1,2,0,2,1,3,1,1,0
67904388,48617932,34.03371020000001,108.7637343,-6.990374,-1.2366514,-3.4236565,-2.0851908,0.11396706,0.0,-1.3926754,-0.0826838,0.15540898,0.19833729,-0.6203817,0.093075745,0.35396147,-1.3674996,-3.2144444,0.74986064,3.12508,0.09131726,441.86426,2.5140285,0.2830006,0.3867562,0.134918,0.09090269,inf,inf,inf,inf,1,1,1,1,2,0,2,1,3,1,1,0
68003611,48617932,34.03371020000001,108.7637343,-7.1357727,-1.2313768,-3.4083354,-2.0851908,0.11396706,0.0,-1.3149335,-0.0829441,0.15725869,0.19613875,-0.6203817,0.093075745,0.35396147,0.079018414,0.5566682,0.93502223,3.126713,0.09131726,441.86426,2.4987075,0.2917094,0.3880404,0.13970684,0.091674425,inf,inf,inf,inf,1,1,1,1,2,0,2,1,3,1,1,0
68102949,48617932,34.03371020000001,108.7637343,-7.265539,-1.2256091,-3.3938735,-2.0851908,0.11396706,0.0,-1.1619021,-0.079429515,0.13434742,0.16915306,-0.6203817,0.093075745,0.35396147,3.272593,2.6310017,-1.7411861,3.1262915,0.09131726,441.86426,2.4842455,0.28266287,0.38818848,0.1349734,0.090789124,inf,inf,inf,inf,1,1,1,1,2,0,2,1,3,1,1,0
68202286,48617932,34.03371020000001,108.7637343,-7.3758626,-1.2212428,-3.382083,-2.0851908,0.11396706,0.0,-1.0116096,-0.09248664,0.13165054,0.1617543,-0.6203817,0.093075745,0.35396147,-0.9224563,-0.53684485,1.1796175,3.124361,0.09131726,441.86426,2.472455,0.2913785,0.3894772,0.13973418,0.0915446,inf,inf,inf,inf,1,1,1,1,2,0,2,1,3,1,1,0
68301624,48617932,34.03371020000001,108.7637343,-7.471354,-1.2201333,-3.3716855,-2.0851908,0.11396706,0.0,-0.85150945,-0.10437765,0.12129103,0.14653611,-0.6203817,0.093075745,0.35396147,1.9438912,-2.0172024,-0.68478537,3.1241884,0.09131726,441.86426,2.4620576,0.2822569,0.38724104,0.13497669,0.090423234,inf,inf,inf,inf,1,1,1,1,2,0,2,1,3,1,1,0
68400981,48617932,34.03371020000001,108.7637343,-7.5561543,-1.2216613,-3.3618553,-2.0851908,0.11396706,0.0,-0.727653,-0.10886283,0.1263209,0.14663315,-0.6203817,0.093075745,0.35396147,0.9038634,-2.8336565,-1.737539,3.123047,0.09131726,441.86426,2.4522274,0.290972,0.38851747,0.13981937,0.091175504,inf,inf,inf,inf,1,1,1,1,2,0,2,1,3,1,1,0
68495332,48617932,34.03371020000001,108.7637343,-7.6224732,-1.2244,-3.3500876,-2.0851908,0.11396706,0.0,-0.6184599,-0.111787796,0.14571096,0.16335453,-0.6203817,0.093075745,0.35396147,0.6215125,-1.6669799,-1.0057003,3.120355,0.09131726,441.86426,2.4404597,0.28100368,0.38571241,0.13455729,0.08994843,inf,inf,inf,inf,1,1,1,1,2,0,2,1,3,1,1,0
68604601,48617932,34.03371020000001,108.7637343,-7.689329,-1.2262707,-3.3338494,-2.0851908,0.11396706,0.0,-0.56565654,-0.11230055,0.14795052,0.16416472,-0.6203817,0.093075745,0.35396147,0.598091,-1.7036092,-0.28160366,3.1158543,0.09131726,441.86426,2.4242215,0.29055616,0.38755694,0.13989638,0.09082176,inf,inf,inf,inf,1,1,1,1,2,0,2,1,3,1,1,0
68694006,48617932,34.03371020000001,108.7637343,-7.744214,-1.2311673,-3.32329,-2.0851908,0.11396706,0.0,-0.5923218,-0.09883979,0.13580827,0.14846785,-0.6203817,0.093075745,0.35396147,0.9150982,3.62773,-1.0780116,3.1105678,0.09131726,441.86426,2.4136622,0.28200024,0.3847917,0.1350735,0.089637585,inf,inf,inf,inf,1,1,1,1,2,0,2,1,3,1,1,0
68798311,48617932,34.03371020000001,108.7637343,-7.816573,-1.2394234,-3.3137171,-2.0851908,0.11396706,0.0,-0.7079819,-0.105448134,0.11615702,0.12412089,-0.6203817,0.093075745,0.35396147,-0.28853476,1.7845855,-1.2187141,3.1055253,0.09131726,441.86426,2.4040892,0.29070503,0.38839933,0.13993448,0.09064158,inf,inf,inf,inf,1,1,1,1,2,0,2,1,3,1,1,0
68897675,48617932,34.03371020000001,108.7637343,-7.900339,-1.2454287,-3.306644,-2.0851908,0.11396706,0.0,-0.8452198,-0.09376209,0.033886325,0.040234026,-0.6203817,0.093075745,0.35396147,1.0841849,2.9564862,-2.8082888,3.100347,0.09131726,441.86426,2.397016,0.28149495,0.38620782,0.13505863,0.08957562,inf,inf,inf,inf,1,1,1,1,2,0,2,1,3,1,1,0
68997130,48617932,34.03371020000001,108.7637343,-8.001162,-1.2481575,-3.304188,-2.0851908,0.11396706,0.0,-1.0215642,-0.095778,-0.056008097,-0.04596678,-0.6203817,0.093075745,0.35396147,-1.00926,-1.4967971,-1.8063545,3.0961027,0.09131726,441.86426,2.39456,0.2902035,0.38743776,0.14010808,0.090344846,inf,inf,inf,inf,1,1,1,1,2,0,2,1,3,1,1,0
69096323,48617932,34.03371020000001,108.7637343,-8.117994,-1.2499267,-3.308006,-2.0851908,0.11396706,0.0,-1.1573244,-0.084102094,-0.12370446,-0.10938945,-0.6203817,0.093075745,0.35396147,0.4181122,-1.3433969,-2.4026153,3.0944054,0.09131726,441.86426,2.3983781,0.28096437,0.38526773,0.13547985,0.08930955,inf,inf,inf,inf,1,1,1,1,2,0,2,1,3,1,1,0
69195661,48617932,34.03371020000001,108.7637343,-8.251573,-1.2472554,-3.3152409,-2.0851908,0.11396706,0.0,-1.311716,-0.08024079,-0.099266395,-0.08136436,-0.6203817,0.093075745,0.35396147,-2.609426,-1.3297095,2.006285,3.096064,0.09131726,441.86426,2.405613,0.28968233,0.38885313,0.14055775,0.09032175,inf,inf,inf,inf,1,1,1,1,2,0,2,1,3,1,1,0
69299964,48617932,34.03371020000001,108.7637343,-8.399818,-1.2475481,-3.3207428,-2.0851908,0.11396706,0.0,-1.348362,-0.079768024,-0.07045153,-0.05011692,-0.6203817,0.093075745,0.35396147,-1.7057027,-1.0116866,1.5126532,3.098418,0.09131726,441.86426,2.411115,0.28056863,0.38664442,0.13580613,0.089283414,inf,inf,inf,inf,1,1,1,1,2,0,2,1,3,1,1,0
69399301,48617932,34.03371020000001,108.7637343,-8.544722,-1.2492734,-3.3234074,-2.0851908,0.11396706,0.0,-1.3864166,-0.07267888,-0.0510572,-0.02890551,-0.6203817,0.093075745,0.35396147,0.26050755,1.3899071,-1.017468,3.1022685,0.09131726,441.86426,2.4137795,0.2892923,0.3878295,0.14042993,0.09001487,inf,inf,inf,inf,1,1,1,1,2,0,2,1,3,1,1,0
69498638,48617932,34.03371020000001,108.7637343,-8.692016,-1.2501265,-3.3196006,-2.0851908,0.11396706,0.0,-1.3960242,-0.082359694,-0.028858826,-0.0013310178,-0.6203817,0.093075745,0.35396147,-0.20291182,-0.81295305,1.7130266,3.1068277,0.09131726,441.86426,2.4099727,0.28028548,0.38565293,0.13564518,0.0889866,inf,inf,inf,inf,1,1,1,1,2,0,2,1,3,1,1,0
69597976,48617932,34.03371020000001,108.7637343,-8.836326,-1.2507463,-3.3131762,-2.0851908,0.11396706,0.0,-1.3888781,-0.08067586,-0.029437171,0.0045862244,-0.6203817,0.093075745,0.35396147,-0.16472976,-0.7509721,-0.85196394,3.110191,0.09131726,441.86426,2.4035482,0.28901258,0.38682935,0.14029242,0.0897163,inf,inf,inf,inf,1,1,1,1,2,0,2,1,3,1,1,0
69697313,48617932,34.03371020000001,108.7637343,-8.976622,-1.2510488,-3.3076704,-2.0851908,0.11396706,0.0,-1.312943,-0.08014907,-0.033673625,0.005253201,-0.6203817,0.093075745,0.35396147,0.52146506,-0.3737644,0.80624735,3.1119723,0.09131726,441.86426,2.3980424,0.27993262,0.38468397,0.1352994,0.08868202,inf,inf,inf,inf,1,1,1,1,2,0,2,1,3,1,1,0
69796766,48617932,34.03371020000001,108.7637343,-9.113867,-1.2500463,-3.3031976,-2.0851908,0.11396706,0.0,-1.3077985,-0.06980805,-0.02079528,0.02139074,-0.6203817,0.093075745,0.35396147,-0.28642082,2.1433694,1.6769723,3.1134295,0.09131726,441.86426,2.3935697,0.2886517,0.3882179,0.13997668,0.089651026,inf,inf,inf,inf,1,1,1,1,2,0,2,1,3,1,1,0
69895989,48617932,34.03371020000001,108.7637343,-9.247075,-1.2495704,-3.3011343,-2.0851908,0.11396706,0.0,-1.264322,-0.06121984,-0.0257756,0.015996946,-0.6203817,0.093075745,0.35396147,2.6897979,2.5415425,-0.777287,3.1149912,0.09131726,441.86426,2.3915064,0.27958986,0.3860595,0.13504928,0.08862219,inf,inf,inf,inf,1,1,1,1,2,0,2,1,3,1,1,0
70005259,48617932,34.03371020000001,108.7637343,-9.388259,-1.2503772,-3.3013928,-2.0851908,0.11396706,0.0,-1.2208483,-0.061942298,-0.03259789,0.00682414,-0.6203817,0.093075745,0.35396147,-1.3012413,-0.13571455,1.359451,3.1142945,0.09131726,441.86426,2.3917649,0.289205,0.38781872,0.14012878,0.089465775,inf,inf,inf,inf,1,1,1,1,2,0,2,1,3,1,1,0
70094663,48617932,34.03371020000001,108.7637343,-9.501936,-1.2484562,-3.3005886,-2.0851908,0.11396706,0.0,-1.2018937,-0.059826396,-0.0013672339,0.037224885,-0.6203817,0.093075745,0.35396147,0.22258778,-0.03757784,0.28473037,3.1159022,0.09131726,441.86426,2.3909607,0.27922922,0.38509387,0.13472272,0.088332295,inf,inf,inf,inf,1,1,1,1,2,0,2,1,3,1,1,0
70203935,48617932,34.03371020000001,108.7637343,-9.643425,-1.2438998,-3.293644,-2.0851908,0.11396706,0.0,-1.1870869,-0.039015964,0.019348253,0.05891879,-0.6203817,0.093075745,0.35396147,1.3197949,3.3694534,-1.0850438,3.1201255,0.09131726,441.86426,2.384016,0.28883633,0.38683498,0.13989449,0.0891895,inf,inf,inf,inf,1,1,1,1,2,0,2,1,3,1,1,0
70303273,48617932,34.03371020000001,108.7637343,-9.760174,-1.2388355,-3.2872756,-2.0851908,0.11396706,0.0,-1.1157172,-0.054087874,0.009139245,0.0494618,-0.6203817,0.093075745,0.35396147,-1.2831517,-2.5477328,0.34435827,3.1239712,0.09131726,441.86426,2.3776476,0.2797314,0.3847118,0.13476795,0.088167064,inf,inf,inf,inf,1,1,1,1,2,0,2,1,3,1,1,0
70402611,48617932,34.03371020000001,108.7637343,-9.864017,-1.2332429,-3.283721,-2.0851908,0.11396706,0.0,-1.0367912,-0.034067243,-0.0014032867,0.038230337,-0.6203817,0.093075745,0.35396147,0.31665382,-0.37472045,0.783869,3.1286798,0.09131726,441.86426,2.374093,0.28847814,0.38585502,0.13938211,0.08889265,inf,inf,inf,inf,1,1,1,1,2,0,2,1,3,1,1,0
70501945,48617932,34.03371020000001,108.7637343,-9.962349,-1.2260503,-3.2798274,-2.0851908,0.11396706,0.0,-0.99188864,-0.03437834,-0.00011718745,0.03962161,-0.6203817,0.093075745,0.35396147,0.19639847,1.8375435,0.95326537,3.1327486,0.09131726,441.86426,2.3701994,0.27933776,0.3837609,0.1345057,0.08790337,inf,inf,inf,inf,1,1,1,1,2,0,2,1,3,1,1,0
70601399,48617932,34.03371020000001,108.7637343,-10.052108,-1.2162702,-3.2749484,-2.0851908,0.11396706,0.0,-0.8960549,-0.031136245,-0.021165075,0.020149747,-0.6203817,0.093075745,0.35396147,0.31543112,0.17667532,-1.5886894,3.134272,0.09131726,441.86426,2.3653204,0.28807178,0.3872455,0.13912044,0.08885347,inf,inf,inf,inf,1,1,1,1,2,0,2,1,3,1,1,0
70700620,48617932,34.03371020000001,108.7637343,-10.136945,-1.2057937,-3.2703614,-2.0851908,0.11396706,0.0,-0.86424124,-0.042978916,-0.020371014,0.023070497,-0.6203817,0.093075745,0.35396147,-2.079865,-2.9878907,1.0460392,3.135069,0.09131726,441.86426,2.3607335,0.27902377,0.3851381,0.13420597,0.08785878,inf,inf,inf,inf,1,1,1,1,2,0,2,1,3,1,1,0
70799957,48617932,34.03371020000001,108.7637343,-10.220645,-1.1937394,-3.265384,-2.0851908,0.11396706,0.0,-0.86992973,-0.022925401,-0.025159774,0.021181365,-0.6203817,0.093075745,0.35396147,1.3600652,2.713156,0.7017847,3.134657,0.09131726,441.86426,2.355756,0.2877459,0.38628036,0.13887918,0.088591754,inf,inf,inf,inf,1,1,1,1,2,0,2,1,3,1,1,0
70904306,48617932,34.03371020000001,108.7637343,-10.3072605,-1.1824435,-3.263096,-2.0851908,0.11396706,0.0,-0.8344799,-0.03440602,-0.044773694,0.0026443582,-0.6203817,0.093075745,0.35396147,-1.1892815,1.4936324,1.2409114,3.13175,0.09131726,441.86426,2.3534682,0.2787451,0.3841976,0.1340085,0.087612994,inf,inf,inf,inf,1,1,1,1,2,0,2,1,3,1,1,0
70993665,48617932,34.03371020000001,108.7637343,-10.379836,-1.1717594,-3.2627568,-2.0851908,0.11396706,0.0,-0.87138975,-0.038740758,-0.05368624,-0.005922109,-0.6203817,0.093075745,0.35396147,1.1298852,-1.1149058,-1.3614757,3.1298938,0.09131726,441.86426,2.353129,0.286561,0.38473696,0.1380745,0.08820949,inf,inf,inf,inf,1,1,1,1,2,0,2,1,3,1,1,0
71102940,48617932,34.03371020000001,108.7637343,-10.47889,-1.1595446,-3.2621706,-2.0851908,0.11396706,0.0,-0.94866455,-0.04716679,-0.042657103,0.004752016,-0.6203817,0.093075745,0.35396147,-1.6013246,-3.5063286,-0.6072698,3.1270595,0.09131726,441.86426,2.3525426,0.2786052,0.3832632,0.13400118,0.087388165,inf,inf,inf,inf,1,1,1,1,2,0,2,1,3,1,1,0
71197307,48617932,34.03371020000001,108.7637343,-10.571341,-1.1508378,-3.2614882,-2.0851908,0.11396706,0.0,-0.983937,-0.037641346,-0.06559789,-0.017531542,-0.6203817,0.093075745,0.35396147,0.016134495,-1.1157645,-1.598739,3.1234913,0.09131726,441.86426,2.3518603,0.28642815,0.38613558,0.13804285,0.088209406,inf,inf,inf,inf,1,1,1,1,2,0,2,1,3,1,1,0
71296644,48617932,34.03371020000001,108.7637343,-10.676906,-1.1401124,-3.2594514,-2.0851908,0.11396706,0.0,-1.101941,-0.034774143,-0.043855697,0.006867497,-0.6203817,0.093075745,0.35396147,-3.012553,-0.5844794,1.8603876,3.1213095,0.09131726,441.86426,2.3498235,0.27757236,0.38407996,0.13314386,0.08723777,inf,inf,inf,inf,1,1,1,1,2,0,2,1,3,1,1,0
71396031,48617932,34.03371020000001,108.7637343,-10.794704,-1.1237882,-3.2518115,-2.0851908,0.11396706,0.0,-1.151359,-0.025396528,-0.0649489,-0.0067440686,-0.6203817,0.093075745,0.35396147,0.08981085,-1.2171669,-1.0608854,3.1204274,0.09131726,441.86426,2.3421836,0.28623033,0.3852033,0.13791826,0.08797912,inf,inf,inf,inf,1,1,1,1,2,0,2,1,3,1,1,0
71500285,48617932,34.03371020000001,108.7637343,-10.922412,-1.1086037,-3.2429416,-2.0851908,0.11396706,0.0,-1.2642523,-0.019496849,-0.053881835,0.012502086,-0.6203817,0.093075745,0.35396147,0.4470809,-0.70246303,-0.37437674,3.1199765,0.09131726,441.86426,2.3333137,0.27742657,0.38318032,0.13305219,0.08701859,inf,inf,inf,inf,1,1,1,1,2,0,2,1,3,1,1,0
71599638,48617932,34.03371020000001,108.7637343,-11.0458145,-1.0926653,-3.2311509,-2.0851908,0.11396706,0.0,-1.291374,-0.005912906,-0.06318611,0.013282061,-0.6203817,0.093075745,0.35396147,0.4162478,0.37539405,0.39420372,3.1178794,0.09131726,441.86426,2.321523,0.28608283,0.38429794,0.13763958,0.087744914,inf,inf,inf,inf,1,1,1,1,2,0,2,1,3,1,1,0
71698960,48617932,34.03371020000001,108.7637343,-11.17316,-1.0798222,-3.2210903,-2.0851908,0.11396706,0.0,-1.3625823,0.0018160699,-0.060185537,0.023797372,-0.6203817,0.093075745,0.35396147,-0.333343,1.5979047,0.7181724,3.117023,0.09131726,441.86426,2.3114624,0.27720279,0.38230252,0.13299806,0.08681162,inf,inf,inf,inf,1,1,1,1,2,0,2,1,3,1,1,0
71798298,48617932,34.03371020000001,108.7637343,-11.300056,-1.0692438,-3.2139819,-2.0851908,0.11396706,0.0,-1.341695,-0.012729963,-0.08380231,0.0049080523,-0.6203817,0.093075745,0.35396147,0.78752124,-4.0666766,-1.2671716,3.1175013,0.09131726,441.86426,2.304354,0.2858582,0.383415,0.1375899,0.08753106,inf,inf,inf,inf,1,1,1,1,2,0,2,1,3,1,1,0
71897634,48617932,34.03371020000001,108.7637343,-11.42307,-1.0589038,-3.2094202,-2.0851908,0.11396706,0.0,-1.3052934,-0.011838712,-0.08422568,0.007504279,-0.6203817,0.093075745,0.35396147,0.91547513,0.2178072,0.91124475,3.1193235,0.09131726,441.86426,2.2997923,0.27694973,0.38143972,0.13281739,0.086599395,inf,inf,inf,inf,1,1,1,1,2,0,2,1,3,1,1,0
71996972,48617932,34.03371020000001,108.7637343,-11.538159,-1.0477128,-3.2056422,-2.0851908,0.11396706,0.0,-1.2339542,-0.017988738,-0.08828986,0.0055724643,-0.6203817,0.093075745,0.35396147,0.52648926,0.28773957,-0.6616337,3.1248167,0.09131726,441.86426,2.2960143,0.28559947,0.38484553,0.13742702,0.08754851,inf,inf,inf,inf,1,1,1,1,2,0,2,1,3,1,1,0
72096314,48617932,34.03371020000001,108.7637343,-11.6411,-1.0393201,-3.203414,-2.0851908,0.11396706,0.0,-1.1046908,-0.024739753,-0.08961118,0.0046742265,-0.6203817,0.093075745,0.35396147,3.1098955,-0.39621654,-0.69733566,3.131813,0.09131726,441.86426,2.293786,0.27663326,0.38285458,0.13265635,0.08661363,inf,inf,inf,inf,1,1,1,1,2,0,2,1,3,1,1,0
72195666,48617932,34.03371020000001,108.7637343,-11.728797,-1.0328087,-3.2021677,-2.0851908,0.11396706,0.0,-1.0057784,-0.043945473,-0.083689086,0.009987397,-0.6203817,0.093075745,0.35396147,0.29602906,-1.1348487,-0.26450604,3.1355455,0.09131726,441.86426,2.2925398,0.28527486,0.3839626,0.13715601,0.08731657,inf,inf,inf,inf,1,1,1,1,2,0,2,1,3,1,1,0
72304917,48617932,34.03371020000001,108.7637343,-11.822306,-1.0304171,-3.2060971,-2.0851908,0.11396706,0.0,-0.9013775,-0.061560865,-0.07402429,0.013014891,-0.6203817,0.093075745,0.35396147,0.5226385,-1.5551393,0.108421944,3.1371675,0.09131726,441.86426,2.2964692,0.27713138,0.38255644,0.13290428,0.08650694,inf,inf,inf,inf,1,1,1,1,2,0,2,1,3,1,1,0
72394321,48617932,34.03371020000001,108.7637343,-11.898051,-1.0317613,-3.212257,-2.0851908,0.11396706,0.0,-0.87231255,-0.0658132,-0.06577289,0.013347215,-0.6203817,0.093075745,0.35396147,-1.1577655,1.1524932,1.951935,3.1360867,0.09131726,441.86426,2.302629,0.28492233,0.3830799,0.13695304,0.08708536,inf,inf,inf,inf,1,1,1,1,2,0,2,1,3,1,1,0
72503595,48617932,34.03371020000001,108.7637343,-11.993191,-1.0316347,-3.2183542,-2.0851908,0.11396706,0.0,-0.8945335,-0.07314579,-0.07399673,-0.002010112,-0.6203817,0.093075745,0.35396147,0.24562368,0.8225576,-0.3933609,3.1349926,0.09131726,441.86426,2.3087263,0.27676854,0.38169134,0.1326811,0.08628624,inf,inf,inf,inf,1,1,1,1,2,0,2,1,3,1,1,0
72592996,48617932,34.03371020000001,108.7637343,-12.075872,-1.0305469,-3.2246563,-2.0851908,0.11396706,0.0,-0.9274884,-0.089476645,-0.10092718,-0.034010958,-0.6203817,0.093075745,0.35396147,-1.7022148,-1.5541369,1.1931471,3.1324348,0.09131726,441.86426,2.3150284,0.28454742,0.3822116,0.13669324,0.08686965,inf,inf,inf,inf,1,1,1,1,2,0,2,1,3,1,1,0
72702267,48617932,34.03371020000001,108.7637343,-12.183919,-1.0293024,-3.234812,-2.0851908,0.11396706,0.0,-0.98539287,-0.08873867,-0.10338022,-0.04246622,-0.6203817,0.093075745,0.35396147,0.5461263,-2.4129274,-0.5913179,3.130377,0.09131726,441.86426,2.325184,0.27631843,0.3808398,0.13241942,0.086085774,inf,inf,inf,inf,1,1,1,1,2,0,2,1,3,1,1,0
72801604,48617932,34.03371020000001,108.7637343,-12.287542,-1.0287371,-3.2416482,-2.0851908,0.11396706,0.0,-0.999818,-0.088989824,-0.07878664,-0.02194339,-0.6203817,0.093075745,0.35396147,-0.897185,2.6695085,1.2689431,3.1288764,0.09131726,441.86426,2.3320203,0.2849767,0.38421255,0.13701011,0.087027505,inf,inf,inf,inf,1,1,1,1,2,0,2,1,3,1,1,0
72900943,48617932,34.03371020000001,108.7637343,-12.385247,-1.0269051,-3.245547,-2.0851908,0.11396706,0.0,-0.99134856,-0.08657622,-0.04940323,0.00444118,-0.6203817,0.093075745,0.35396147,0.6238456,1.3272383,1.5878588,3.129776,0.09131726,441.86426,2.3359191,0.27585888,0.38226178,0.13224329,0.08612378,inf,inf,inf,inf,1,1,1,1,2,0,2,1,3,1,1,0
73000338,48617932,34.03371020000001,108.7637343,-12.479354,-1.0241132,-3.2455041,-2.0851908,0.11396706,0.0,-0.961672,-0.098584965,-0.025607249,0.026548335,-0.6203817,0.093075745,0.35396147,-0.17094499,-0.943798,0.526277,3.1312108,0.09131726,441.86426,2.3358762,0.28450197,0.38334808,0.13664477,0.08681806,inf,inf,inf,inf,1,1,1,1,2,0,2,1,3,1,1,0
73094650,48617932,34.03371020000001,108.7637343,-12.564634,-1.0229207,-3.2432332,-2.0851908,0.11396706,0.0,-0.9338233,-0.096453056,-0.01850943,0.033650447,-0.6203817,0.093075745,0.35396147,-2.0532236,-0.010138313,1.9952751,3.1316564,0.09131726,441.86426,2.3336053,0.27452555,0.38085017,0.1314221,0.0857836,inf,inf,inf,inf,1,1,1,1,2,0,2,1,3,1,1,0
73203920,48617932,34.03371020000001,108.7637343,-12.6616955,-1.0212806,-3.2398794,-2.0851908,0.11396706,0.0,-0.8677367,-0.09674847,-0.0338309,0.018238584,-0.6203817,0.093075745,0.35396147,2.0332146,-0.8446246,-1.275885,3.1316288,0.09131726,441.86426,2.3302515,0.28398252,0.38247633,0.13629568,0.08658596,inf,inf,inf,inf,1,1,1,1,2,0,2,1,3,1,1,0
73293454,48617932,34.03371020000001,108.7637343,-12.73681,-1.0212001,-3.23734,-2.0851908,0.11396706,0.0,-0.8257562,-0.10173482,-0.0365282,0.01644865,-0.6203817,0.093075745,0.35396147,-0.24143545,-1.2990202,0.8240835,3.1286497,0.09131726,441.86426,2.327712,0.27401516,0.38000602,0.13137527,0.0855883,inf,inf,inf,inf,1,1,1,1,2,0,2,1,3,1,1,0
73397628,48617932,34.03371020000001,108.7637343,-12.823378,-1.0227113,-3.2327251,-2.0851908,0.11396706,0.0,-0.82624483,-0.09390171,-0.023340117,0.032236993,-0.6203817,0.093075745,0.35396147,0.9877852,1.0999892,1.2411088,3.126458,0.09131726,441.86426,2.3230972,0.28258273,0.38334745,0.13596858,0.08652637,inf,inf,inf,inf,1,1,1,1,2,0,2,1,3,1,1,0
73496965,48617932,34.03371020000001,108.7637343,-12.90208,-1.0243139,-3.2267387,-2.0851908,0.11396706,0.0,-0.7607088,-0.093556106,-0.036071174,0.022332057,-0.6203817,0.093075745,0.35396147,1.0834498,1.767459,-1.5216826,3.1225178,0.09131726,441.86426,2.3171108,0.2734259,0.38143146,0.13145694,0.085640274,inf,inf,inf,inf,1,1,1,1,2,0,2,1,3,1,1,0
73596302,48617932,34.03371020000001,108.7637343,-12.974172,-1.0234842,-3.2234802,-2.0851908,0.11396706,0.0,-0.757892,-0.10615687,-0.033236075,0.025762612,-0.6203817,0.093075745,0.35396147,-1.7142383,-3.3928194,1.3775569,3.1184747,0.09131726,441.86426,2.3138523,0.28198475,0.3825089,0.13589825,0.08632181,inf,inf,inf,inf,1,1,1,1,2,0,2,1,3,1,1,0
73695652,48617932,34.03371020000001,108.7637343,-13.04356,-1.0233722,-3.222253,-2.0851908,0.11396706,0.0,-0.6779019,-0.08968547,-0.06128468,-0.002181661,-0.6203817,0.093075745,0.35396147,0.83318746,-2.107438,-0.03467177,3.1149256,0.09131726,441.86426,2.3126252,0.27293068,0.38061926,0.13135603,0.08545458,inf,inf,inf,inf,1,1,1,1,2,0,2,1,3,1,1,0
73794979,48617932,34.03371020000001,108.7637343,-13.108928,-1.0236366,-3.2218523,-2.0851908,0.11396706,0.0,-0.6432044,-0.07376262,-0.06479802,-0.005216194,-0.6203817,0.093075745,0.35396147,1.2459745,4.1688843,-0.1623791,3.1123385,0.09131726,441.86426,2.3122244,0.28148472,0.38168558,0.1358834,0.08615046,inf,inf,inf,inf,1,1,1,1,2,0,2,1,3,1,1,0
73899281,48617932,34.03371020000001,108.7637343,-13.168036,-1.0245054,-3.2215908,-2.0851908,0.11396706,0.0,-0.50943637,-0.084533155,-0.07761791,-0.016648468,-0.6203817,0.093075745,0.35396147,3.1523612,0.05013247,-0.9089859,3.1123252,0.09131726,441.86426,2.3119628,0.27246654,0.379806,0.1313774,0.08529033,inf,inf,inf,inf,1,1,1,1,2,0,2,1,3,1,1,0
73998619,48617932,34.03371020000001,108.7637343,-13.211393,-1.0245478,-3.221382,-2.0851908,0.11396706,0.0,-0.43087167,-0.08384788,-0.0706209,-0.008221076,-0.6203817,0.093075745,0.35396147,-1.4333663,-1.5774964,1.1020888,3.1127326,0.09131726,441.86426,2.311754,0.281022,0.38086194,0.13591303,0.0859792,inf,inf,inf,inf,1,1,1,1,2,0,2,1,3,1,1,0
74098062,48617932,34.03371020000001,108.7637343,-13.245938,-1.0230459,-3.2198923,-2.0851908,0.11396706,0.0,-0.3264732,-0.068563536,-0.06332205,0.0005391244,-0.6203817,0.093075745,0.35396147,1.7296003,1.9055966,-0.41792214,3.1138628,0.09131726,441.86426,2.3102643,0.27199772,0.3790052,0.13158163,0.08513821,inf,inf,inf,inf,1,1,1,1,2,0,2,1,3,1,1,0
74197295,48617932,34.03371020000001,108.7637343,-13.271297,-1.0187625,-3.2172232,-2.0851908,0.11396706,0.0,-0.26673344,-0.0726026,-0.04766715,0.017506214,-0.6203817,0.093075745,0.35396147,-0.5382998,-0.4344862,0.11322195,3.114975,0.09131726,441.86426,2.3075953,0.28056028,0.38231826,0.13611853,0.08602899,inf,inf,inf,inf,1,1,1,1,2,0,2,1,3,1,1,0
74296630,48617932,34.03371020000001,108.7637343,-13.299624,-1.0150993,-3.213425,-2.0851908,0.11396706,0.0,-0.27668187,-0.057505343,-0.047476124,0.019408224,-0.6203817,0.093075745,0.35396147,0.4334365,1.1973343,0.15893765,3.115082,0.09131726,441.86426,2.303797,0.2715704,0.38045126,0.13145928,0.08515322,inf,inf,inf,inf,1,1,1,1,2,0,2,1,3,1,1,0
74395968,48617932,34.03371020000001,108.7637343,-13.338661,-1.010383,-3.2096202,-2.0851908,0.11396706,0.0,-0.36466205,-0.06354595,-0.05791149,0.011156475,-0.6203817,0.093075745,0.35396147,-2.1392894,0.2071362,1.252911,3.114327,0.09131726,441.86426,2.2999923,0.28012893,0.38151082,0.13597962,0.08584743,inf,inf,inf,inf,1,1,1,1,2,0,2,1,3,1,1,0
74495305,48617932,34.03371020000001,108.7637343,-13.390771,-1.009218,-3.2084463,-2.0851908,0.11396706,0.0,-0.51418793,-0.05138422,-0.09001969,-0.019603426,-0.6203817,0.093075745,0.35396147,-1.2791809,0.21356598,-0.5048697,3.112842,0.09131726,441.86426,2.2988183,0.27369693,0.3796532,0.13179289,0.0849772,inf,inf,inf,inf,1,1,1,1,2,0,2,1,3,1,1,0
74604576,48617932,34.03371020000001,108.7637343,-13.467764,-1.0109614,-3.209277,-2.0851908,0.11396706,0.0,-0.71762115,-0.056530707,-0.10832748,-0.035461735,-0.6203817,0.093075745,0.35396147,-1.42722,0.9576741,-0.5643218,3.1095939,0.09131726,441.86426,2.299649,0.2832212,0.38126102,0.1367392,0.08576628,inf,inf,inf,inf,1,1,1,1,2,0,2,1,3,1,1,0
74698947,48617932,34.03371020000001,108.7637343,-13.55532,-1.0123678,-3.2104208,-2.0851908,0.11396706,0.0,-0.89634836,-0.04665417,-0.108859174,-0.033953294,-0.6203817,0.093075745,0.35396147,-0.051945224,0.9783847,0.7413941,3.10744,0.09131726,441.86426,2.300793,0.27518487,0.3788665,0.13201858,0.08480112,inf,inf,inf,inf,1,1,1,1,2,0,2,1,3,1,1,0
74798284,48617932,34.03371020000001,108.7637343,-13.665498,-1.0136266,-3.2119088,-2.0851908,0.11396706,0.0,-1.0537212,-0.05698894,-0.10276677,-0.02611893,-0.6203817,0.093075745,0.35396147,-2.12968,-0.45317334,1.2079928,3.10525,0.09131726,441.86426,2.302281,0.2838628,0.379905,0.136512,0.08547257,inf,inf,inf,inf,1,1,1,1,2,0,2,1,3,1,1,0
74897693,48617932,34.03371020000001,108.7637343,-13.786093,-1.0150279,-3.212018,-2.0851908,0.11396706,0.0,-1.1547686,-0.06241355,-0.092261225,-0.014016749,-0.6203817,0.093075745,0.35396147,-0.5489497,-3.8536532,-0.8759916,3.1068661,0.09131726,441.86426,2.30239,0.27590865,0.38031638,0.1321865,0.0848446,inf,inf,inf,inf,1,1,1,1,2,0,2,1,3,1,1,0
74996960,48617932,34.03371020000001,108.7637343,-13.910881,-1.0162756,-3.2111628,-2.0851908,0.11396706,0.0,-1.1811874,-0.04173745,-0.07846119,0.0008038734,-0.6203817,0.093075745,0.35396147,0.9596217,3.1564195,0.30644566,3.108297,0.09131726,441.86426,2.301535,0.2846003,0.38136917,0.13669999,0.085530445,inf,inf,inf,inf,1,1,1,1,2,0,2,1,3,1,1,0
75096296,48617932,34.03371020000001,108.7637343,-14.034733,-1.0204812,-3.2105637,-2.0851908,0.11396706,0.0,-1.2228829,-0.056422804,-0.066601,0.011853239,-0.6203817,0.093075745,0.35396147,1.7754041,-0.27066806,-1.9726896,3.1136014,0.09131726,441.86426,2.3009357,0.27655748,0.37952256,0.13207488,0.08467239,inf,inf,inf,inf,1,1,1,1,2,0,2,1,3,1,1,0
75195635,48617932,34.03371020000001,108.7637343,-14.154162,-1.0274144,-3.211849,-2.0851908,0.11396706,0.0,-1.1966813,-0.058762606,-0.0652443,0.0100070005,-0.6203817,0.093075745,0.35396147,-0.59372187,0.4494212,0.78997886,3.1173005,0.09131726,441.86426,2.302221,0.28524464,0.380551,0.13652104,0.08534062,inf,inf,inf,inf,1,1,1,1,2,0,2,1,3,1,1,0
75294993,48617932,34.03371020000001,108.7637343,-14.266541,-1.032345,-3.2172828,-2.0851908,0.11396706,0.0,-1.1314994,-0.070989564,-0.09135806,-0.021008648,-0.6203817,0.093075745,0.35396147,-0.6081562,-4.092609,-0.35735345,3.1196198,0.09131726,441.86426,2.3076549,0.27731118,0.37871662,0.13199818,0.0844783,inf,inf,inf,inf,1,1,1,1,2,0,2,1,3,1,1,0
75394309,48617932,34.03371020000001,108.7637343,-14.37328,-1.0347166,-3.226254,-2.0851908,0.11396706,0.0,-1.1012245,-0.061571516,-0.081461065,-0.01802108,-0.6203817,0.093075745,0.35396147,-0.33849677,0.78576225,1.1537256,3.1215098,0.09131726,441.86426,2.316626,0.2860044,0.38198915,0.1365236,0.08538028,inf,inf,inf,inf,1,1,1,1,2,0,2,1,3,1,1,0
75503579,48617932,34.03371020000001,108.7637343,-14.479752,-1.0407181,-3.2373505,-2.0851908,0.11396706,0.0,-1.06751,-0.05903088,-0.0708077,-0.017031126,-0.6203817,0.093075745,0.35396147,1.325325,1.5009788,-0.09112767,3.124633,0.09131726,441.86426,2.3277225,0.28149998,0.37845507,0.13302597,0.08444466,inf,inf,inf,inf,1,1,1,1,2,0,2,1,3,1,1,0
75602922,48617932,34.03371020000001,108.7637343,-14.568817,-1.0486833,-3.2486615,-2.0851908,0.11396706,0.0,-1.0541075,-0.065111734,-0.058175165,-0.014714677,-0.6203817,0.093075745,0.35396147,0.49395004,0.16823995,-1.0818259,3.1255882,0.09131726,441.86426,2.3390336,0.2903314,0.38172033,0.13745163,0.08531337,inf,inf,inf,inf,1,1,1,1,2,0,2,1,3,1,1,0
75702320,48617932,34.03371020000001,108.7637343,-14.657979,-1.0593776,-3.2643025,-2.0851908,0.11396706,0.0,-1.0082651,-0.06601821,-0.07166649,-0.04132096,-0.6203817,0.093075745,0.35396147,-0.30443612,0.47550407,-0.6393876,3.1247354,0.09131726,441.86426,2.3546746,0.2858178,0.37987724,0.13348489,0.08446292,inf,inf,inf,inf,1,1,1,1,2,0,2,1,3,1,1,0
75801591,48617932,34.03371020000001,108.7637343,-14.747205,-1.0721838,-3.2826571,-2.0851908,0.11396706,0.0,-1.0136738,-0.0675601,-0.054396242,-0.03786707,-0.6203817,0.093075745,0.35396147,-0.80249673,0.014474684,1.1624742,3.1258938,0.09131726,441.86426,2.3730292,0.29473898,0.38089976,0.1380019,0.08514457,inf,inf,inf,inf,1,1,1,1,2,0,2,1,3,1,1,0
75900928,48617932,34.03371020000001,108.7637343,-14.840648,-1.0853966,-3.3035572,-2.0851908,0.11396706,0.0,-0.99818474,-0.070526876,-0.042059008,-0.042142697,-0.6203817,0.093075745,0.35396147,-1.2442008,-0.14510386,1.7689263,3.1271129,0.09131726,441.86426,2.3939292,0.2897699,0.37907258,0.1339622,0.084322624,inf,inf,inf,inf,1,1,1,1,2,0,2,1,3,1,1,0
75990481,48617932,34.03371020000001,108.7637343,-14.921488,-1.0974666,-3.322951,-2.0851908,0.11396706,0.0,-0.9366021,-0.07786418,-0.043532595,-0.057465214,-0.6203817,0.093075745,0.35396147,-0.4050704,-1.9369954,0.2135978,3.1280851,0.09131726,441.86426,2.4133232,0.29783595,0.379534,0.13795896,0.08487619,inf,inf,inf,inf,1,1,1,1,2,0,2,1,3,1,1,0
76094636,48617932,34.03371020000001,108.7637343,-15.018337,-1.1105351,-3.3403902,-2.0851908,0.11396706,0.0,-0.93212306,-0.07456339,-0.015580051,-0.04103801,-0.6203817,0.093075745,0.35396147,1.9057724,2.1838388,0.21309663,3.1294389,0.09131726,441.86426,2.4307623,0.2916326,0.37995464,0.13353762,0.08425122,inf,inf,inf,inf,1,1,1,1,2,0,2,1,3,1,1,0
76203932,48617932,34.03371020000001,108.7637343,-15.118108,-1.1226155,-3.362586,-2.0851908,0.11396706,0.0,-0.8145397,-0.043157388,-0.0136531815,-0.054431204,-0.6203817,0.093075745,0.35396147,-1.2867072,0.70359373,1.5374451,3.1276462,0.09131726,441.86426,2.452958,0.3015042,0.3792753,0.13859393,0.08482036,inf,inf,inf,inf,1,1,1,1,2,0,2,1,3,1,1,0
76298277,48617932,34.03371020000001,108.7637343,-15.198456,-1.1276582,-3.3797717,-2.0851908,0.11396706,0.0,-0.7690692,-0.055670645,0.0078002685,-0.044317923,-0.6203817,0.093075745,0.35396147,-0.3292595,-3.0851479,-0.014538907,3.127254,0.09131726,441.86426,2.4701438,0.29350516,0.37915638,0.13360345,0.084093675,inf,inf,inf,inf,1,1,1,1,2,0,2,1,3,1,1,0
76397616,48617932,34.03371020000001,108.7637343,-15.278625,-1.1321155,-3.3970494,-2.0851908,0.11396706,0.0,-0.6574101,-0.06155297,0.025608297,-0.038044944,-0.6203817,0.093075745,0.35396147,0.008407966,-2.8847322,1.3806766,3.1254187,0.09131726,441.86426,2.4874215,0.30244365,0.38014838,0.13805689,0.08477148,inf,inf,inf,inf,1,1,1,1,2,0,2,1,3,1,1,0
76496968,48617932,34.03371020000001,108.7637343,-15.345472,-1.1324492,-3.4077742,-2.0851908,0.11396706,0.0,-0.5946707,-0.007373063,0.050345782,-0.019046355,-0.6203817,0.093075745,0.35396147,1.406115,2.9656272,0.3368642,3.1252527,0.09131726,441.86426,2.4981463,0.29345632,0.37833905,0.1333356,0.0839436,inf,inf,inf,inf,1,1,1,1,2,0,2,1,3,1,1,0
76596290,48617932,34.03371020000001,108.7637343,-15.402987,-1.1272895,-3.413487,-2.0851908,0.11396706,0.0,-0.54612285,-0.0062623923,0.08593771,0.013374488,-0.6203817,0.093075745,0.35396147,1.2799933,-2.1484902,-0.21577284,3.1275363,0.09131726,441.86426,2.503859,0.30232903,0.37932798,0.13778947,0.08460953,inf,inf,inf,inf,1,1,1,1,2,0,2,1,3,1,1,0
76695626,48617932,34.03371020000001,108.7637343,-15.457141,-1.1185778,-3.4121132,-2.0851908,0.11396706,0.0,-0.55959445,0.052987542,0.111918636,0.040031597,-0.6203817,0.093075745,0.35396147,-2.2398381,1.0603831,1.3130102,3.1273584,0.09131726,441.86426,2.5024853,0.2918008,0.37975064,0.13264583,0.083973855,inf,inf,inf,inf,1,1,1,1,2,0,2,1,3,1,1,0
76795107,48617932,34.03371020000001,108.7637343,-15.510099,-1.100279,-3.4077303,-2.0851908,0.11396706,0.0,-0.5487222,0.119703546,0.08994824,0.021485068,-0.6203817,0.093075745,0.35396147,-0.048176058,1.005853,-1.2330039,3.1256125,0.09131726,441.86426,2.4981024,0.30056205,0.3807339,0.13702926,0.084637485,inf,inf,inf,inf,1,1,1,1,2,0,2,1,3,1,1,0
76899268,48617932,34.03371020000001,108.7637343,-15.570663,-1.0703672,-3.39615,-2.0851908,0.11396706,0.0,-0.5669403,0.22949491,0.09711833,0.03891834,-0.6203817,0.093075745,0.35396147,-0.7136519,1.4523259,0.50418484,3.116855,0.09131726,441.86426,2.4865222,0.2886406,0.37891304,0.13183048,0.08381611,inf,inf,inf,inf,1,1,1,1,2,0,2,1,3,1,1,0
76998606,48617932,34.03371020000001,108.7637343,-15.63327,-1.0248598,-3.377859,-2.0851908,0.11396706,0.0,-0.5535916,0.3476835,0.10554667,0.06260714,-0.6203817,0.093075745,0.35396147,1.5962139,0.87355095,-1.0826725,3.1105306,0.09131726,441.86426,2.4682312,0.29727122,0.37988776,0.13655415,0.08450937,inf,inf,inf,inf,1,1,1,1,2,0,2,1,3,1,1,0
77097945,48617932,34.03371020000001,108.7637343,-15.689284,-0.9709968,-3.355701,-2.0851908,0.11396706,0.0,-0.5452853,0.43259868,0.112095855,0.08508293,-0.6203817,0.093075745,0.35396147,1.0069492,-0.90532243,-0.4611288,3.111891,0.09131726,441.86426,2.446073,0.2853415,0.37809002,0.1315053,0.083696894,inf,inf,inf,inf,1,1,1,1,2,0,2,1,3,1,1,0
77197343,48617932,34.03371020000001,108.7637343,-15.735372,-0.91047716,-3.3328006,-2.0851908,0.11396706,0.0,-0.5202003,0.5131266,0.10247569,0.09073144,-0.6203817,0.093075745,0.35396147,0.8934173,2.1514053,-1.1186773,3.1141055,0.09131726,441.86426,2.4231727,0.29386625,0.3790631,0.13600855,0.08435151,inf,inf,inf,inf,1,1,1,1,2,0,2,1,3,1,1,0
77296618,48617932,34.03371020000001,108.7637343,-15.778714,-0.84436744,-3.3056219,-2.0851908,0.11396706,0.0,-0.504151,0.51318544,0.0804221,0.08848654,-0.6203817,0.093075745,0.35396147,-2.8228447,-1.5779266,1.4945298,3.1150084,0.09131726,441.86426,2.395994,0.28245777,0.37949896,0.13117245,0.08374796,inf,inf,inf,inf,1,1,1,1,2,0,2,1,3,1,1,0
77395957,48617932,34.03371020000001,108.7637343,-15.819665,-0.7770871,-3.2764564,-2.0851908,0.11396706,0.0,-0.505905,0.51346976,0.037138678,0.068021156,-0.6203817,0.093075745,0.35396147,1.2496232,1.8062599,0.68764555,3.1136878,0.09131726,441.86426,2.3668284,0.2909021,0.38048005,0.1357451,0.084414884,inf,inf,inf,inf,1,1,1,1,2,0,2,1,3,1,1,0
77495292,48617932,34.03371020000001,108.7637343,-15.864236,-0.70969677,-3.249939,-2.0851908,0.11396706,0.0,-0.53267777,0.47918692,0.011302881,0.063214615,-0.6203817,0.093075745,0.35396147,-1.6256794,-1.5479705,1.3048533,3.1128721,0.09131726,441.86426,2.340311,0.2799649,0.37868896,0.13109817,0.08361655,inf,inf,inf,inf,1,1,1,1,2,0,2,1,3,1,1,0
77594744,48617932,34.03371020000001,108.7637343,-15.910246,-0.6416591,-3.223962,-2.0851908,0.11396706,0.0,-0.53586036,0.4834147,-0.0071409456,0.06479373,-0.6203817,0.093075745,0.35396147,1.2216853,3.6730113,0.17674674,3.111755,0.09131726,441.86426,2.3143342,0.28836322,0.37966254,0.13577811,0.084280364,inf,inf,inf,inf,1,1,1,1,2,0,2,1,3,1,1,0
77703900,48617932,34.03371020000001,108.7637343,-15.964498,-0.5615099,-3.1998947,-2.0851908,0.11396706,0.0,-0.60409325,0.5247996,-0.0094021475,0.077584006,-0.6203817,0.093075745,0.35396147,-0.1266206,-0.8446088,-0.6326711,3.111267,0.09131726,441.86426,2.2902668,0.2786305,0.37842515,0.13162437,0.08359017,inf,inf,inf,inf,1,1,1,1,2,0,2,1,3,1,1,0
77803238,48617932,34.03371020000001,108.7637343,-16.017977,-0.48131317,-3.1817021,-2.0851908,0.11396706,0.0,-0.6485436,0.55331933,-0.025007421,0.07137622,-0.6203817,0.093075745,0.35396147,0.038768567,0.3971402,-0.628777,3.1093185,0.09131726,441.86426,2.2720742,0.28705388,0.37939814,0.13617928,0.08424297,inf,inf,inf,inf,1,1,1,1,2,0,2,1,3,1,1,0
77902576,48617932,34.03371020000001,108.7637343,-16.085197,-0.39766282,-3.167463,-2.0851908,0.11396706,0.0,-0.7244476,0.6173334,-0.04761022,0.055621807,-0.6203817,0.093075745,0.35396147,-0.301896,0.6968113,0.7244181,3.1053689,0.09131726,441.86426,2.2578351,0.2767824,0.3776236,0.131585,0.08344135,inf,inf,inf,inf,1,1,1,1,2,0,2,1,3,1,1,0
78001929,48617932,34.03371020000001,108.7637343,-16.166159,-0.3126038,-3.156323,-2.0851908,0.11396706,0.0,-0.8258506,0.6208713,-0.07633328,0.032650184,-0.6203817,0.093075745,0.35396147,-1.869809,0.85575014,0.64042413,3.1019785,0.09131726,441.86426,2.246695,0.28518987,0.3785882,0.13619702,0.08411372,inf,inf,inf,inf,1,1,1,1,2,0,2,1,3,1,1,0
78101322,48617932,34.03371020000001,108.7637343,-16.257444,-0.23635717,-3.150098,-2.0851908,0.11396706,0.0,-0.91976124,0.5396901,-0.099136755,0.012930781,-0.6203817,0.093075745,0.35396147,-2.5858283,-0.9958399,1.4387393,3.1017206,0.09131726,441.86426,2.2404702,0.27510473,0.3790362,0.13163285,0.08352298,inf,inf,inf,inf,1,1,1,1,2,0,2,1,3,1,1,0
78195620,48617932,34.03371020000001,108.7637343,-16.351614,-0.17770942,-3.1494467,-2.0851908,0.11396706,0.0,-0.97457695,0.42103645,-0.14289849,-0.029586455,-0.6203817,0.093075745,0.35396147,-2.1721444,0.15733798,0.8238733,3.1063776,0.09131726,441.86426,2.2398188,0.28263888,0.37946558,0.13583319,0.08408386,inf,inf,inf,inf,1,1,1,1,2,0,2,1,3,1,1,0
78294957,48617932,34.03371020000001,108.7637343,-16.457285,-0.12837155,-3.1504598,-2.0851908,0.11396706,0.0,-1.047285,0.28970617,-0.16440102,-0.049091976,-0.6203817,0.093075745,0.35396147,0.4566415,1.4986385,0.25727,3.1126413,0.09131726,441.86426,2.2408319,0.27296042,0.37770274,0.13128486,0.08328562,inf,inf,inf,inf,1,1,1,1,2,0,2,1,3,1,1,0
78404358,48617932,34.03371020000001,108.7637343,-16.577126,-0.08471405,-3.1526282,-2.0851908,0.11396706,0.0,-1.0700976,0.13425551,-0.1598414,-0.042567085,-0.6203817,0.093075745,0.35396147,-0.6622536,-2.0915797,1.0171981,3.1183624,0.09131726,441.86426,2.2430003,0.2821821,0.37921178,0.1366725,0.0840654,inf,inf,inf,inf,1,1,1,1,2,0,2,1,3,1,1,0
