timestamp,ref_timestamp,ref_lat,ref_lon,x,y,z,delta_xy[0],delta_xy[1],delta_z,vx,vy,vz,z_deriv,delta_vxy[0],delta_vxy[1],delta_vz,ax,ay,az,heading,delta_heading,ref_alt,dist_bottom,eph,epv,evh,evv,vxy_max,vz_max,hagl_min,hagl_max,xy_valid,z_valid,v_xy_valid,v_z_valid,xy_reset_counter,z_reset_counter,vxy_reset_counter,vz_reset_counter,heading_reset_counter,xy_global,z_global,dist_bottom_valid
42339918,33157931,34.0343664,108.755141,0.279317,0.256438,-0.0058637,-0.633879,0.156789,0.0,0.0313798,0.0032429,0.0650934,-0.00448917,-0.102455,0.0459952,0.0967945,-0.159744,-0.0651296,0.0239631,-3.11973,-0.000588061,426.876,0.1,0.279163,0.395807,0.147864,0.114428,inf,inf,inf,inf,1,1,1,1,2,0,2,1,3,1,1,1
42349846,33157931,34.0343664,108.755141,0.279168,0.256769,-0.00579224,-0.633879,0.156789,0.0,0.0330976,0.00404029,0.064618,-0.00482449,-0.102455,0.0459952,0.0967945,0.0633158,-0.0337044,0.100319,-3.11975,-0.000588061,426.876,0.1,0.280126,0.396532,0.148385,0.114635,inf,inf,inf,inf,1,1,1,1,2,0,2,1,3,1,1,1
42449165,33157931,34.0343664,108.755141,0.276988,0.26149,-0.00597929,-0.633879,0.156789,0.0,0.0344212,0.0071092,0.0638286,-0.0052148,-0.102455,0.0459952,0.0967945,1.32476,-0.383584,-0.00696107,-3.11981,-0.000588061,426.876,0.1,0.270469,0.393651,0.142259,0.112488,inf,inf,inf,inf,1,1,1,1,2,0,2,1,3,1,1,1
42538628,33157931,34.0343664,108.755141,0.275487,0.266091,-0.00599052,-0.633879,0.156789,0.0,0.0493027,0.00637856,0.060568,-0.00791103,-0.102455,0.0459952,0.0967945,1.28414,-0.377139,0.482181,-3.11969,-0.000588061,426.876,0.1,0.278821,0.395053,0.147084,0.113785,inf,inf,inf,inf,1,1,1,1,2,0,2,1,3,1,1,1
42647802,33157931,34.0343664,108.755141,0.274416,0.270421,-0.00609225,-0.633879,0.156789,0.0,0.0308899,0.00308952,0.06348,-0.00446231,-0.102455,0.0459952,0.0967945,0.593157,0.604073,0.703455,-3.11941,-0.000588061,426.876,0.1,0.270152,0.392923,0.141565,0.11187,inf,inf,inf,inf,1,1,1,1,2,0,2,1,3,1,1,1
42737190,33157931,34.0343664,108.755141,0.274071,0.273083,-0.0061099,-0.633879,0.156789,0.0,0.0337843,0.00406472,0.0688365,0.00123582,-0.102455,0.0459952,0.0967945,0.54721,0.371584,0.00915039,-3.11944,-0.000588061,426.876,0.1,0.278471,0.394313,0.146195,0.113113,inf,inf,inf,inf,1,1,1,1,2,0,2,1,3,1,1,1
42846439,33157931,34.0343664,108.755141,0.272206,0.276727,-0.00783547,-0.633879,0.156789,0.0,0.0357809,0.0038106,0.0647478,-0.00413493,-0.102455,0.0459952,0.0967945,0.1002,0.53204,-0.0535156,-3.11906,-0.000588061,426.876,0.1,0.26983,0.392192,0.140746,0.111216,inf,inf,inf,inf,1,1,1,1,2,0,2,1,3,1,1,1
42945769,33157931,34.0343664,108.755141,0.269424,0.280258,-0.0117472,-0.633879,0.156789,0.0,0.0352432,-0.00132035,0.0607981,-0.0112391,-0.102455,0.0459952,0.0967945,-0.170929,-0.133518,0.0175485,-3.11771,-0.000588061,426.876,0.1,0.279065,0.396812,0.145828,0.11292,inf,inf,inf,inf,1,1,1,1,2,0,2,1,3,1,1,1
43045076,33157931,34.0343664,108.755141,0.265856,0.284173,-0.0150255,-0.633879,0.156789,0.0,0.0325529,-0.000663035,0.0609562,-0.0131113,-0.102455,0.0459952,0.0967945,-0.414063,-0.057899,-0.520227,-3.11879,-0.000588061,426.876,0.1,0.269502,0.393946,0.140013,0.110847,inf,inf,inf,inf,1,1,1,1,2,0,2,1,3,1,1,1
43149360,33157931,34.0343664,108.755141,0.26238,0.288184,-0.0171786,-0.633879,0.156789,0.0,0.0351794,0.00170158,0.0611777,-0.0137327,-0.102455,0.0459952,0.0967945,-0.482861,0.421175,-0.654464,-3.11827,-0.000588061,426.876,0.1,0.2787,0.396055,0.145057,0.112238,inf,inf,inf,inf,1,1,1,1,2,0,2,1,3,1,1,1
43238747,33157931,34.0343664,108.755141,0.257988,0.291854,-0.0206018,-0.633879,0.156789,0.0,0.0306215,-0.00885547,0.0550537,-0.0215365,-0.102455,0.0459952,0.0967945,-0.192024,-1.79069,2.28366,-3.11712,-0.000588061,426.876,0.1,0.268286,0.392511,0.139098,0.110003,inf,inf,inf,inf,1,1,1,1,2,0,2,1,3,1,1,1
43348032,33157931,34.0343664,108.755141,0.250894,0.296166,-0.0254331,-0.633879,0.156789,0.0,0.0404102,0.0106954,0.0463336,-0.0323784,-0.102455,0.0459952,0.0967945,3.5733,0.55877,-0.758639,-3.11779,-0.000588061,426.876,0.1,0.278341,0.395293,0.146315,0.111596,inf,inf,inf,inf,1,1,1,1,2,0,2,1,3,1,1,1
43442350,33157931,34.0343664,108.755141,0.246976,0.300265,-0.0296114,-0.633879,0.156789,0.0,0.027707,0.00319463,0.0615255,-0.0190088,-0.102455,0.0459952,0.0967945,-6.65608,-1.37254,3.50194,-3.11614,-0.000588061,426.876,0.1,0.267954,0.391782,0.141787,0.109398,inf,inf,inf,inf,1,1,1,1,2,0,2,1,3,1,1,1
43541670,33157931,34.0343664,108.755141,0.242583,0.304428,-0.0346184,-0.633879,0.156789,0.0,0.0120667,-0.0124577,0.0585818,-0.0238152,-0.102455,0.0459952,0.0967945,-3.94713,-2.30367,1.58661,-3.11543,-0.000588061,426.876,0.102846,0.277052,0.396347,0.149759,0.111021,inf,inf,inf,inf,1,1,1,1,2,0,2,1,3,1,1,1
43641192,33157931,34.0343664,108.755141,0.237561,0.308197,-0.0419892,-0.633879,0.156789,0.0,0.0326884,-0.00674973,0.0452845,-0.0408653,-0.102455,0.0459952,0.0967945,0.373785,-1.55859,-0.517558,-3.11627,-0.000588061,426.876,0.110217,0.267621,0.39352,0.146798,0.109073,inf,inf,inf,inf,1,1,1,1,2,0,2,1,3,1,1,1
43745271,33157931,34.0343664,108.755141,0.233499,0.312405,-0.0513997,-0.633879,0.156789,0.0,0.0284126,0.000620254,0.0532284,-0.038259,-0.102455,0.0459952,0.0967945,-3.80371,-1.07734,2.6312,-3.11543,-0.000588061,426.876,0.119627,0.276749,0.39558,0.156016,0.110399,inf,inf,inf,inf,1,1,1,1,2,0,2,1,3,1,1,1
43844589,33157931,34.0343664,108.755141,0.2276,0.316242,-0.0608952,-0.633879,0.156789,0.0,0.0249645,-0.0090652,0.0439525,-0.0517443,-0.102455,0.0459952,0.0967945,-0.279042,-1.5024,-0.568816,-3.1147,-0.000588061,426.876,0.129123,0.267341,0.392768,0.152812,0.108474,inf,inf,inf,inf,1,1,1,1,2,0,2,1,3,1,1,1
43943908,33157931,34.0343664,108.755141,0.217138,0.31908,-0.0704964,-0.633879,0.156789,0.0,0.00508752,-0.0164464,0.0352116,-0.0634938,-0.102455,0.0459952,0.0967945,0.0251883,0.9123,-0.126544,-3.11413,-0.000588061,426.876,0.138724,0.27655,0.394782,0.162708,0.109766,inf,inf,inf,inf,1,1,1,1,2,0,2,1,3,1,1,1
44043227,33157931,34.0343664,108.755141,0.20666,0.321403,-0.0791978,-0.633879,0.156789,0.0,-4.65745e-05,-0.0139801,0.0350591,-0.0652759,-0.102455,0.0459952,0.0967945,-0.563709,1.37769,0.359667,-3.11312,-0.000588061,426.876,0.147426,0.267192,0.392002,0.158749,0.10786,inf,inf,inf,inf,1,1,1,1,2,0,2,1,3,1,1,1
44142545,33157931,34.0343664,108.755141,0.197907,0.323811,-0.0886261,-0.633879,0.156789,0.0,0.0145863,-0.00479375,0.0213984,-0.0805659,-0.102455,0.0459952,0.0967945,1.60558,4.81854,-3.10744,-3.1111,-0.000588061,426.876,0.156854,0.276533,0.393997,0.168989,0.109136,inf,inf,inf,inf,1,1,1,1,2,0,2,1,3,1,1,1
44241864,33157931,34.0343664,108.755141,0.190361,0.326565,-0.0978498,-0.633879,0.156789,0.0,0.0096472,-0.0101193,0.0225634,-0.079567,-0.102455,0.0459952,0.0967945,-0.919014,-1.2608,1.36247,-3.10693,-0.000588061,426.876,0.166078,0.266982,0.393709,0.163666,0.107519,inf,inf,inf,inf,1,1,1,1,2,0,2,1,3,1,1,1
44341182,33157931,34.0343664,108.755141,0.181618,0.330274,-0.108487,-0.633879,0.156789,0.0,0.0056023,-0.00168594,0.00991343,-0.0930067,-0.102455,0.0459952,0.0967945,0.991493,-1.26956,-0.465886,-3.10737,-0.000588061,426.876,0.176715,0.276464,0.395712,0.173949,0.10879,inf,inf,inf,inf,1,1,1,1,2,0,2,1,3,1,1,1
44440632,33157931,34.0343664,108.755141,0.174106,0.334588,-0.117536,-0.633879,0.156789,0.0,0.00211228,0.0141205,0.0293397,-0.0740808,-0.102455,0.0459952,0.0967945,0.709725,-1.04473,0.112418,-3.11016,-0.000588061,426.876,0.185764,0.266856,0.39293,0.167519,0.106924,inf,inf,inf,inf,1,1,1,1,2,0,2,1,3,1,1,1
44539820,33157931,34.0343664,108.755141,0.166576,0.339219,-0.122022,-0.633879,0.156789,0.0,-0.0127144,0.00820968,0.0273841,-0.0729854,-0.102455,0.0459952,0.0967945,-1.49464,1.23956,1.18155,-3.11284,-0.000588061,426.876,0.19025,0.276494,0.394902,0.177585,0.108167,inf,inf,inf,inf,1,1,1,1,2,0,2,1,3,1,1,1
44639138,33157931,34.0343664,108.755141,0.159104,0.344428,-0.127773,-0.633879,0.156789,0.0,-0.0111912,0.00799858,-0.0060259,-0.10245,-0.102455,0.0459952,0.0967945,-0.176202,-3.80414,0.0814927,-3.11547,-0.000588061,426.876,0.196001,0.266776,0.392138,0.170021,0.106312,inf,inf,inf,inf,1,1,1,1,2,0,2,1,3,1,1,1
44748388,33157931,34.0343664,108.755141,0.150746,0.351796,-0.137316,-0.633879,0.156789,0.0,-0.0155337,0.0413992,0.00153897,-0.0935104,-0.102455,0.0459952,0.0967945,0.889237,-1.88198,-0.916099,-3.11779,-0.000588061,426.876,0.205544,0.277595,0.39478,0.180802,0.107725,inf,inf,inf,inf,1,1,1,1,2,0,2,1,3,1,1,1
44837774,33157931,34.0343664,108.755141,0.143433,0.360613,-0.143997,-0.633879,0.156789,0.0,-0.0155199,0.0654246,0.0213335,-0.0730484,-0.102455,0.0459952,0.0967945,0.384639,3.678,-1.3907,-3.12028,-0.000588061,426.876,0.212225,0.266759,0.393818,0.171495,0.106032,inf,inf,inf,inf,1,1,1,1,2,0,2,1,3,1,1,1
44947040,33157931,34.0343664,108.755141,0.134139,0.372855,-0.150285,-0.633879,0.156789,0.0,-0.0295966,0.0843253,0.0592548,-0.0349053,-0.102455,0.0459952,0.0967945,-1.41802,-3.09676,2.17388,-3.12123,-0.000588061,426.876,0.218513,0.277732,0.396469,0.181782,0.107417,inf,inf,inf,inf,1,1,1,1,2,0,2,1,3,1,1,1
45041417,33157931,34.0343664,108.755141,0.125284,0.38851,-0.153276,-0.633879,0.156789,0.0,-0.035197,0.108021,0.0678034,-0.0257288,-0.102455,0.0459952,0.0967945,-1.45231,0.0318051,3.03294,-3.12325,-0.000588061,426.876,0.221503,0.26677,0.392995,0.171792,0.105429,inf,inf,inf,inf,1,1,1,1,2,0,2,1,3,1,1,1
45140698,33157931,34.0343664,108.755141,0.115525,0.40781,-0.154992,-0.633879,0.156789,0.0,-0.0316908,0.125802,0.0614954,-0.0301995,-0.102455,0.0459952,0.0967945,0.0616182,-3.94367,-0.904296,-3.12163,-0.000588061,426.876,0.22322,0.2768,0.394893,0.180723,0.106612,inf,inf,inf,inf,1,1,1,1,2,0,2,1,3,1,1,1
45240101,33157931,34.0343664,108.755141,0.104658,0.429713,-0.156021,-0.633879,0.156789,0.0,-0.0236151,0.149019,0.0578814,-0.0322133,-0.102455,0.0459952,0.0967945,1.30444,4.8197,-2.2059,-3.11804,-0.000588061,426.876,0.224249,0.266816,0.392152,0.171387,0.104868,inf,inf,inf,inf,1,1,1,1,2,0,2,1,3,1,1,1
45344300,33157931,34.0343664,108.755141,0.094116,0.451135,-0.161665,-0.633879,0.156789,0.0,0.00409044,0.139735,0.011424,-0.0791485,-0.102455,0.0459952,0.0967945,0.211914,5.27123,-0.676007,-3.11877,-0.000588061,426.876,0.229893,0.276938,0.396541,0.179926,0.106336,inf,inf,inf,inf,1,1,1,1,2,0,2,1,3,1,1,1
45443652,33157931,34.0343664,108.755141,0.085855,0.471876,-0.17048,-0.633879,0.156789,0.0,-0.013426,0.139078,0.00601673,-0.0847098,-0.102455,0.0459952,0.0967945,-3.01371,-1.20226,3.45842,-3.12031,-0.000588061,426.876,0.238708,0.266861,0.39376,0.170418,0.104627,inf,inf,inf,inf,1,1,1,1,2,0,2,1,3,1,1,1
45542938,33157931,34.0343664,108.755141,0.0770335,0.493502,-0.180998,-0.633879,0.156789,0.0,-0.00128993,0.148948,-0.0196077,-0.110026,-0.102455,0.0459952,0.0967945,-0.497876,0.995894,0.18152,-3.12228,-0.000588061,426.876,0.249225,0.277054,0.395628,0.178575,0.10581,inf,inf,inf,inf,1,1,1,1,2,0,2,1,3,1,1,1
45642255,33157931,34.0343664,108.755141,0.0701789,0.510777,-0.194629,-0.633879,0.156789,0.0,-0.0052625,0.132764,-0.0852573,-0.17397,-0.102455,0.0459952,0.0967945,-1.76909,-1.17747,3.21951,-3.13268,-0.000588061,426.876,0.262857,0.26701,0.392885,0.16904,0.104099,inf,inf,inf,inf,1,1,1,1,2,0,2,1,3,1,1,1
45741623,33157931,34.0343664,108.755141,0.0647659,0.525283,-0.213767,-0.633879,0.156789,0.0,0.00543575,0.15348,-0.173293,-0.259223,-0.102455,0.0459952,0.0967945,0.124118,0.313845,-1.56452,-3.1404,-0.000588061,426.876,0.281995,0.277259,0.394725,0.176805,0.105268,inf,inf,inf,inf,1,1,1,1,2,0,2,1,3,1,1,1
45840892,33157931,34.0343664,108.755141,0.0609862,0.539033,-0.237818,-0.633879,0.156789,0.0,0.00516997,0.152166,-0.236822,-0.31787,-0.102455,0.0459952,0.0967945,0.537356,1.56166,-0.931129,3.13848,-0.000588061,426.876,0.306046,0.26704,0.392012,0.167189,0.103612,inf,inf,inf,inf,1,1,1,1,2,0,2,1,3,1,1,1
45940217,33157931,34.0343664,108.755141,0.0583354,0.551315,-0.268188,-0.633879,0.156789,0.0,0.00376434,0.168217,-0.285084,-0.362152,-0.102455,0.0459952,0.0967945,-2.38036,2.01504,3.43777,3.13711,-0.000588061,426.876,0.336416,0.277309,0.393826,0.174638,0.104794,inf,inf,inf,inf,1,1,1,1,2,0,2,1,3,1,1,1
46039559,33157931,34.0343664,108.755141,0.0567195,0.56626,-0.302154,-0.633879,0.156789,0.0,0.00787585,0.162312,-0.341097,-0.412841,-0.102455,0.0459952,0.0967945,-0.179187,1.40762,-0.910413,3.13777,-0.000588061,426.876,0.370382,0.267044,0.393609,0.165123,0.10343,inf,inf,inf,inf,1,1,1,1,2,0,2,1,3,1,1,1
46148780,33157931,34.0343664,108.755141,0.0551106,0.58612,-0.34026,-0.633879,0.156789,0.0,0.0143686,0.168085,-0.367101,-0.430895,-0.102455,0.0459952,0.0967945,0.776075,-5.64327,0.245447,3.14072,-0.000588061,426.876,0.408488,0.278384,0.396128,0.172893,0.104764,inf,inf,inf,inf,1,1,1,1,2,0,2,1,3,1,1,1
46238166,33157931,34.0343664,108.755141,0.0541089,0.603837,-0.379266,-0.633879,0.156789,0.0,0.0234841,0.176079,-0.386427,-0.44991,-0.102455,0.0459952,0.0967945,-0.459464,-3.67744,1.28252,-3.14059,-0.000588061,426.876,0.447494,0.266901,0.392727,0.162694,0.102942,inf,inf,inf,inf,1,1,1,1,2,0,2,1,3,1,1,1
46347417,33157931,34.0343664,108.755141,0.0514472,0.627857,-0.433405,-0.633879,0.156789,0.0,0.0303729,0.194772,-0.425062,-0.491771,-0.102455,0.0459952,0.0967945,0.776391,-2.02375,-1.74049,-3.13648,-0.000588061,426.876,0.501633,0.278188,0.395207,0.170072,0.104242,inf,inf,inf,inf,1,1,1,1,2,0,2,1,3,1,1,1
46446738,33157931,34.0343664,108.755141,0.0494467,0.650419,-0.484756,-0.633879,0.156789,0.0,0.0379188,0.217821,-0.459709,-0.527614,-0.102455,0.0459952,0.0967945,0.082181,1.5926,-1.4143,-3.13289,-0.000588061,426.876,0.552983,0.267762,0.392509,0.16097,0.102622,inf,inf,inf,inf,1,1,1,1,2,0,2,1,3,1,1,1
46546054,33157931,34.0343664,108.755141,0.0458464,0.674456,-0.538126,-0.633879,0.156789,0.0,0.0100617,0.231073,-0.470961,-0.539468,-0.102455,0.0459952,0.0967945,-0.589339,1.18315,0.332998,-3.12888,-0.000588061,426.876,0.606354,0.278018,0.394288,0.167408,0.103745,inf,inf,inf,inf,1,1,1,1,2,0,2,1,3,1,1,1
46640408,33157931,34.0343664,108.755141,0.0432661,0.699897,-0.586147,-0.633879,0.156789,0.0,-0.00823067,0.24218,-0.491956,-0.556602,-0.102455,0.0459952,0.0967945,-0.0292243,-1.63097,-0.0302938,-3.12539,-0.000588061,426.876,0.654374,0.266633,0.393417,0.157975,0.102256,inf,inf,inf,inf,1,1,1,1,2,0,2,1,3,1,1,1
46739727,33157931,34.0343664,108.755141,0.0400015,0.731431,-0.635078,-0.633879,0.156789,0.0,-0.0514783,0.253412,-0.510314,-0.567744,-0.102455,0.0459952,0.0967945,0.273465,-5.27837,-0.834972,-3.12268,-0.000588061,426.876,0.703306,0.276749,0.395172,0.164119,0.103354,inf,inf,inf,inf,1,1,1,1,2,0,2,1,3,1,1,1
46839096,33157931,34.0343664,108.755141,0.0273737,0.76153,-0.684583,-0.633879,0.156789,0.0,-0.1302,0.267582,-0.525297,-0.575523,-0.102455,0.0459952,0.0967945,0.309,-3.25582,-1.58456,-3.12001,-0.000588061,426.876,0.752811,0.266453,0.392485,0.155669,0.101792,inf,inf,inf,inf,1,1,1,1,2,0,2,1,3,1,1,1
46943329,33157931,34.0343664,108.755141,0.00300211,0.792803,-0.737302,-0.633879,0.156789,0.0,-0.222078,0.290069,-0.531569,-0.574621,-0.102455,0.0459952,0.0967945,-1.22808,-2.7767,0.924188,-3.11841,-0.000588061,426.876,0.805529,0.276506,0.394223,0.16159,0.102885,inf,inf,inf,inf,1,1,1,1,2,0,2,1,3,1,1,1
47042647,33157931,34.0343664,108.755141,-0.027762,0.827043,-0.789397,-0.633879,0.156789,0.0,-0.331048,0.296904,-0.526099,-0.564434,-0.102455,0.0459952,0.0967945,-2.0157,-2.33759,2.09222,-3.1172,-0.000588061,426.876,0.857624,0.266286,0.391576,0.153387,0.101326,inf,inf,inf,inf,1,1,1,1,2,0,2,1,3,1,1,1
47142122,33157931,34.0343664,108.755141,-0.0660798,0.867397,-0.842337,-0.633879,0.156789,0.0,-0.430595,0.324154,-0.522647,-0.557996,-0.102455,0.0459952,0.0967945,-2.22773,0.633328,1.95984,-3.11675,-0.000588061,426.876,0.910565,0.276269,0.393297,0.159164,0.102431,inf,inf,inf,inf,1,1,1,1,2,0,2,1,3,1,1,1
47241288,33157931,34.0343664,108.755141,-0.117351,0.907614,-0.899652,-0.633879,0.156789,0.0,-0.551762,0.345777,-0.513817,-0.551736,-0.102455,0.0459952,0.0967945,-3.336,2.9963,3.15357,-3.11613,-0.000588061,426.876,0.96788,0.266087,0.390689,0.151234,0.100884,inf,inf,inf,inf,1,1,1,1,2,0,2,1,3,1,1,1
47340619,33157931,34.0343664,108.755141,-0.183084,0.948243,-0.960672,-0.633879,0.156789,0.0,-0.663802,0.339762,-0.512867,-0.556966,-0.102455,0.0459952,0.0967945,-2.01293,-1.42166,1.96994,-3.11526,-0.000588061,426.876,1.0289,0.27599,0.394872,0.156786,0.102238,inf,inf,inf,inf,1,1,1,1,2,0,2,1,3,1,1,1
47439921,33157931,34.0343664,108.755141,-0.260726,0.990139,-1.02566,-0.633879,0.156789,0.0,-0.753581,0.348169,-0.524577,-0.577984,-0.102455,0.0459952,0.0967945,-1.24305,-3.46097,1.34886,-3.11496,-0.000588061,426.876,1.09389,0.265855,0.392245,0.149154,0.100706,inf,inf,inf,inf,1,1,1,1,2,0,2,1,3,1,1,1
47539240,33157931,34.0343664,108.755141,-0.34928,1.0346,-1.09549,-0.633879,0.156789,0.0,-0.840808,0.369054,-0.531168,-0.596583,-0.102455,0.0459952,0.0967945,-0.639371,-2.07633,0.430174,-3.11423,-0.000588061,426.876,1.16372,0.275674,0.393927,0.15456,0.101775,inf,inf,inf,inf,1,1,1,1,2,0,2,1,3,1,1,1
47638559,33157931,34.0343664,108.755141,-0.440677,1.07397,-1.16331,-0.633879,0.156789,0.0,-0.887034,0.365616,-0.54029,-0.614027,-0.102455,0.0459952,0.0967945,0.36359,0.0921111,-0.739727,-3.11351,-0.000588061,426.876,1.23154,0.265483,0.391308,0.147096,0.100263,inf,inf,inf,inf,1,1,1,1,2,0,2,1,3,1,1,1
47742844,33157931,34.0343664,108.755141,-0.534113,1.10593,-1.23629,-0.633879,0.156789,0.0,-0.906461,0.31701,-0.53917,-0.621683,-0.102455,0.0459952,0.0967945,-0.500196,-4.58142,1.58133,-3.11372,-0.000588061,426.876,1.30452,0.275205,0.392956,0.15235,0.101313,inf,inf,inf,inf,1,1,1,1,2,0,2,1,3,1,1,1
47842162,33157931,34.0343664,108.755141,-0.6235,1.13095,-1.30306,-0.633879,0.156789,0.0,-0.898788,0.23324,-0.550104,-0.636165,-0.102455,0.0459952,0.0967945,1.55643,-5.88297,-0.574055,-3.11277,-0.000588061,426.876,1.37128,0.285605,0.397176,0.15764,0.102638,inf,inf,inf,inf,1,1,1,1,2,0,2,1,3,1,1,1
47941595,33157931,34.0343664,108.755141,-0.700212,1.14894,-1.37078,-0.633879,0.156789,0.0,-0.870714,0.171683,-0.561857,-0.6511,-0.102455,0.0459952,0.0967945,1.38707,-0.654479,-1.91642,-3.11272,-0.000588061,426.876,1.43901,0.274369,0.394463,0.149941,0.101116,inf,inf,inf,inf,1,1,1,1,2,0,2,1,3,1,1,1
48040799,33157931,34.0343664,108.755141,-0.774895,1.16332,-1.43604,-0.633879,0.156789,0.0,-0.830474,0.0324434,-0.568708,-0.65806,-0.102455,0.0459952,0.0967945,2.15492,1.30205,-3.76415,-3.11347,-0.000588061,426.876,1.50426,0.26451,0.391883,0.143139,0.0996412,inf,inf,inf,inf,1,1,1,1,2,0,2,1,3,1,1,1
48140126,33157931,34.0343664,108.755141,-0.847936,1.17511,-1.50135,-0.633879,0.156789,0.0,-0.801846,-0.0689668,-0.570549,-0.65915,-0.102455,0.0459952,0.0967945,0.827635,1.94981,-0.961992,-3.1131,-0.000588061,426.876,1.56957,0.27403,0.393528,0.148112,0.100692,inf,inf,inf,inf,1,1,1,1,2,0,2,1,3,1,1,1
48239436,33157931,34.0343664,108.755141,-0.919201,1.17296,-1.56798,-0.633879,0.156789,0.0,-0.772862,-0.199389,-0.566505,-0.655314,-0.102455,0.0459952,0.0967945,-1.65838,2.17918,1.64153,-3.11365,-0.000588061,426.876,1.63621,0.264181,0.39097,0.141551,0.0992345,inf,inf,inf,inf,1,1,1,1,2,0,2,1,3,1,1,0
48338755,33157931,34.0343664,108.755141,-0.988665,1.15753,-1.63599,-0.633879,0.156789,0.0,-0.746432,-0.31456,-0.565297,-0.655293,-0.102455,0.0459952,0.0967945,-1.87471,-4.28303,3.1398,3.04347,-0.126316,426.876,1.70422,0.273623,0.392583,0.146479,0.10027,inf,inf,inf,inf,1,1,1,1,2,0,2,1,4,1,1,0
48448005,33157931,34.0343664,108.755141,-1.06627,1.13314,-1.71228,-0.633879,0.156789,0.0,-0.721062,-0.337002,-0.579844,-0.671871,-0.102455,0.0459952,0.0967945,-1.09423,-0.218452,1.62161,3.04808,-0.126316,426.876,1.78051,0.264639,0.390697,0.139685,0.0986546,inf,inf,inf,inf,1,1,1,1,2,0,2,1,4,1,1,0
48547324,33157931,34.0343664,108.755141,-1.13901,1.1052,-1.7835,-0.633879,0.156789,0.0,-0.708177,-0.39221,-0.592935,-0.687964,-0.102455,0.0459952,0.0967945,1.21388,1.6687,-1.94101,3.05356,-0.126316,426.876,1.85173,0.273952,0.392264,0.144518,0.0994672,inf,inf,inf,inf,1,1,1,1,2,0,2,1,4,1,1,0
48646687,33157931,34.0343664,108.755141,-1.21676,1.07735,-1.85609,-0.633879,0.156789,0.0,-0.695987,-0.368558,-0.592913,-0.691857,-0.102455,0.0459952,0.0967945,0.109545,2.25454,-0.0296161,3.05883,-0.126316,426.876,1.92432,0.26422,0.38977,0.138923,0.0979621,inf,inf,inf,inf,1,1,1,1,2,0,2,1,4,1,1,0
48746064,33157931,34.0343664,108.755141,-1.29639,1.05255,-1.92833,-0.633879,0.156789,0.0,-0.681951,-0.353074,-0.573961,-0.67614,-0.102455,0.0459952,0.0967945,1.82721,1.62563,-1.76765,3.0641,-0.126316,426.876,1.99655,0.273362,0.393753,0.144592,0.099184,inf,inf,inf,inf,1,1,1,1,2,0,2,1,4,1,1,0
48845280,33157931,34.0343664,108.755141,-1.37611,1.02595,-1.9989,-0.633879,0.156789,0.0,-0.677967,-0.327473,-0.521288,-0.62864,-0.102455,0.0459952,0.0967945,-0.593606,-2.32539,1.94951,3.0658,-0.126316,426.876,2.06713,0.263642,0.391248,0.139684,0.0978286,inf,inf,inf,inf,1,1,1,1,2,0,2,1,4,1,1,0
48944600,33157931,34.0343664,108.755141,-1.45734,0.998559,-2.06672,-0.633879,0.156789,0.0,-0.673953,-0.282021,-0.465742,-0.579719,-0.102455,0.0459952,0.0967945,0.0942265,4.23515,1.11399,3.06518,-0.126316,426.876,2.13495,0.272646,0.392737,0.146087,0.0989266,inf,inf,inf,inf,1,1,1,1,2,0,2,1,4,1,1,0
49034179,33157931,34.0343664,108.755141,-1.52944,0.975655,-2.12161,-0.633879,0.156789,0.0,-0.664306,-0.257664,-0.420992,-0.538884,-0.102455,0.0459952,0.0967945,0.093241,-0.883285,-0.200871,3.06562,-0.126316,426.876,2.18983,0.262173,0.389643,0.141027,0.09754,inf,inf,inf,inf,1,1,1,1,2,0,2,1,4,1,1,0
49148208,33157931,34.0343664,108.755141,-1.62122,0.949112,-2.18502,-0.633879,0.156789,0.0,-0.654947,-0.219913,-0.36103,-0.483677,-0.102455,0.0459952,0.0967945,2.78684,0.512534,-2.20781,3.06181,-0.126316,426.876,2.25325,0.27195,0.391704,0.148717,0.0989308,inf,inf,inf,inf,1,1,1,1,2,0,2,1,4,1,1,0
49247520,33157931,34.0343664,108.755141,-1.69695,0.925991,-2.22805,-0.633879,0.156789,0.0,-0.656573,-0.202808,-0.298746,-0.418315,-0.102455,0.0459952,0.0967945,-0.430992,-3.33596,1.25907,3.05986,-0.126316,426.876,2.29627,0.262419,0.389283,0.144664,0.0978591,inf,inf,inf,inf,1,1,1,1,2,0,2,1,4,1,1,0
49341921,33157931,34.0343664,108.755141,-1.76404,0.903019,-2.25963,-0.633879,0.156789,0.0,-0.646363,-0.176546,-0.244582,-0.357969,-0.102455,0.0459952,0.0967945,-0.589279,-1.65778,1.19404,3.05647,-0.126316,426.876,2.32786,0.270388,0.392506,0.151418,0.0992788,inf,inf,inf,inf,1,1,1,1,2,0,2,1,4,1,1,0
49441194,33157931,34.0343664,108.755141,-1.83481,0.881247,-2.28713,-0.633879,0.156789,0.0,-0.636372,-0.151607,-0.186375,-0.293245,-0.102455,0.0459952,0.0967945,0.606597,0.728541,0.631019,3.05325,-0.126316,426.876,2.35536,0.261018,0.390088,0.146992,0.0982673,inf,inf,inf,inf,1,1,1,1,2,0,2,1,4,1,1,0
49540601,33157931,34.0343664,108.755141,-1.90798,0.860926,-2.30784,-0.633879,0.156789,0.0,-0.630669,-0.131101,-0.13341,-0.233325,-0.102455,0.0459952,0.0967945,1.19157,-0.615847,-0.779865,3.05051,-0.126316,426.876,2.37607,0.269856,0.391483,0.154846,0.0997551,inf,inf,inf,inf,1,1,1,1,2,0,2,1,4,1,1,0
49639829,33157931,34.0343664,108.755141,-1.97852,0.845956,-2.31917,-0.633879,0.156789,0.0,-0.625919,-0.0951481,-0.0733204,-0.163609,-0.102455,0.0459952,0.0967945,0.707744,2.15587,0.0855224,3.0482,-0.126316,426.876,2.3874,0.26064,0.389116,0.150104,0.0988301,inf,inf,inf,inf,1,1,1,1,2,0,2,1,4,1,1,0
49739148,33157931,34.0343664,108.755141,-2.04668,0.837065,-2.32096,-0.633879,0.156789,0.0,-0.62157,-0.0793008,-0.00667493,-0.0850239,-0.102455,0.0459952,0.0967945,-1.29475,1.49978,3.17648,3.04579,-0.126316,426.876,2.38919,0.269551,0.390496,0.157881,0.100401,inf,inf,inf,inf,1,1,1,1,2,0,2,1,4,1,1,0
49838649,33157931,34.0343664,108.755141,-2.11156,0.830554,-2.31735,-0.633879,0.156789,0.0,-0.584809,-0.0381794,0.0227211,-0.0448597,-0.102455,0.0459952,0.0967945,0.110487,-1.24116,0.537443,3.05489,-0.126316,426.876,2.38557,0.279236,0.391918,0.165831,0.102007,inf,inf,inf,inf,1,1,1,1,2,0,2,1,4,1,1,0
49942785,33157931,34.0343664,108.755141,-2.1708,0.826723,-2.30894,-0.633879,0.156789,0.0,-0.580943,-0.0314534,0.0450581,-0.0110671,-0.102455,0.0459952,0.0967945,1.40874,4.15827,-1.46703,3.08326,-0.126316,426.876,2.37717,0.268884,0.389491,0.15961,0.101113,inf,inf,inf,inf,1,1,1,1,2,0,2,1,4,1,1,0
50042126,33157931,34.0343664,108.755141,-2.22699,0.824743,-2.29941,-0.633879,0.156789,0.0,-0.580265,-0.00664222,0.0634753,0.0164926,-0.102455,0.0459952,0.0967945,1.16055,-2.31655,-0.853315,3.13045,-0.126316,426.876,2.36763,0.259728,0.38718,0.154246,0.100323,inf,inf,inf,inf,1,1,1,1,2,0,2,1,4,1,1,0
50141392,33157931,34.0343664,108.755141,-2.28382,0.824138,-2.28886,-0.633879,0.156789,0.0,-0.605417,0.00849046,0.072826,0.0335219,-0.102455,0.0459952,0.0967945,-0.808887,-0.0147573,0.307627,-3.09423,-0.126316,426.876,2.35709,0.268796,0.390962,0.161916,0.102323,inf,inf,inf,inf,1,1,1,1,2,0,2,1,4,1,1,0
50240709,33157931,34.0343664,108.755141,-2.34915,0.827681,-2.27678,-0.633879,0.156789,0.0,-0.676991,0.0348669,0.0587504,0.028207,-0.102455,0.0459952,0.0967945,-0.800826,-0.184707,-0.569328,-3.04759,-0.126316,426.876,2.34501,0.259609,0.388639,0.15567,0.101489,inf,inf,inf,inf,1,1,1,1,2,0,2,1,4,1,1,0
50340032,33157931,34.0343664,108.755141,-2.42595,0.835282,-2.26629,-0.633879,0.156789,0.0,-0.745363,0.0580251,0.0306193,0.00875546,-0.102455,0.0459952,0.0967945,-0.928201,0.7898,-0.112586,-3.03058,-0.126316,426.876,2.33452,0.268801,0.390032,0.163212,0.103352,inf,inf,inf,inf,1,1,1,1,2,0,2,1,4,1,1,0
50444314,33157931,34.0343664,108.755141,-2.51318,0.842101,-2.25736,-0.633879,0.156789,0.0,-0.839459,0.0560532,0.0282988,0.0139606,-0.102455,0.0459952,0.0967945,-2.08234,1.81659,1.29224,-3.02253,-0.126316,426.876,2.32559,0.259469,0.387717,0.156494,0.102526,inf,inf,inf,inf,1,1,1,1,2,0,2,1,4,1,1,0
50543630,33157931,34.0343664,108.755141,-2.60259,0.844951,-2.24839,-0.633879,0.156789,0.0,-0.888276,0.0552601,0.0155289,0.00845766,-0.102455,0.0459952,0.0967945,1.33078,-1.42552,-1.46231,-3.02006,-0.126316,426.876,2.31662,0.268763,0.389113,0.16387,0.104452,inf,inf,inf,inf,1,1,1,1,2,0,2,1,4,1,1,0
50643106,33157931,34.0343664,108.755141,-2.69459,0.849588,-2.24156,-0.633879,0.156789,0.0,-0.933169,0.058861,0.0204794,0.0178255,-0.102455,0.0459952,0.0967945,-1.25121,1.03811,0.514552,-3.021,-0.126316,426.876,2.30979,0.2595,0.386828,0.157043,0.10362,inf,inf,inf,inf,1,1,1,1,2,0,2,1,4,1,1,0
50742266,33157931,34.0343664,108.755141,-2.78674,0.855175,-2.23773,-0.633879,0.156789,0.0,-0.944226,0.0560745,0.00994925,0.00896953,-0.102455,0.0459952,0.0967945,0.925854,0.00785233,0.0394452,-3.02442,-0.126316,426.876,2.30596,0.268902,0.388248,0.164173,0.10559,inf,inf,inf,inf,1,1,1,1,2,0,2,1,4,1,1,0
50841585,33157931,34.0343664,108.755141,-2.88204,0.859032,-2.23615,-0.633879,0.156789,0.0,-0.950109,0.0319991,-0.00324264,-0.00362428,-0.102455,0.0459952,0.0967945,0.230871,-3.6242,0.253103,-3.02803,-0.126316,426.876,2.30438,0.25958,0.388354,0.156849,0.104895,inf,inf,inf,inf,1,1,1,1,2,0,2,1,4,1,1,0
50940927,33157931,34.0343664,108.755141,-2.98062,0.860972,-2.23559,-0.633879,0.156789,0.0,-0.956916,0.0507652,-0.0233588,-0.0229299,-0.102455,0.0459952,0.0967945,0.812551,4.22743,-2.61462,-3.03486,-0.126316,426.876,2.30382,0.269071,0.38983,0.163665,0.106905,inf,inf,inf,inf,1,1,1,1,2,0,2,1,4,1,1,0
51040222,33157931,34.0343664,108.755141,-3.08137,0.860056,-2.23713,-0.633879,0.156789,0.0,-0.964874,0.0151816,-0.0199804,-0.0196086,-0.102455,0.0459952,0.0967945,-1.20263,-2.12996,2.53596,-3.03917,-0.126316,426.876,2.30536,0.259728,0.387529,0.156204,0.105934,inf,inf,inf,inf,1,1,1,1,2,0,2,1,4,1,1,0
51139554,33157931,34.0343664,108.755141,-3.18503,0.855713,-2.23847,-0.633879,0.156789,0.0,-0.9638,-0.00127704,-0.0391565,-0.0374884,-0.102455,0.0459952,0.0967945,-0.150279,-3.60402,0.306099,-3.04344,-0.126316,426.876,2.30669,0.26929,0.38901,0.162778,0.107963,inf,inf,inf,inf,1,1,1,1,2,0,2,1,4,1,1,0
51238859,33157931,34.0343664,108.755141,-3.28735,0.851374,-2.24012,-0.633879,0.156789,0.0,-0.967591,0.00149981,-0.0505195,-0.0471555,-0.102455,0.0459952,0.0967945,0.756334,2.30268,-2.50713,-3.04938,-0.126316,426.876,2.30834,0.259682,0.38906,0.154849,0.107084,inf,inf,inf,inf,1,1,1,1,2,0,2,1,4,1,1,0
51348110,33157931,34.0343664,108.755141,-3.39821,0.848116,-2.2392,-0.633879,0.156789,0.0,-0.971161,-0.0181722,-0.0406348,-0.0328107,-0.102455,0.0459952,0.0967945,-1.24043,1.24641,1.64318,-3.05359,-0.126316,426.876,2.30743,0.270263,0.391224,0.161842,0.1094,inf,inf,inf,inf,1,1,1,1,2,0,2,1,4,1,1,0
51447575,33157931,34.0343664,108.755141,-3.49982,0.845241,-2.23943,-0.633879,0.156789,0.0,-0.965104,-0.0325061,-0.0444416,-0.0338977,-0.102455,0.0459952,0.0967945,0.123747,-3.97053,0.599334,-3.05613,-0.126316,426.876,2.30766,0.260788,0.388849,0.154245,0.108257,inf,inf,inf,inf,1,1,1,1,2,0,2,1,4,1,1,0
51546747,33157931,34.0343664,108.755141,-3.60115,0.843132,-2.24205,-0.633879,0.156789,0.0,-0.953453,-0.0331889,-0.0550917,-0.044171,-0.102455,0.0459952,0.0967945,1.57781,-1.84004,-1.89002,-3.05894,-0.126316,426.876,2.31028,0.270477,0.39042,0.160251,0.110296,inf,inf,inf,inf,1,1,1,1,2,0,2,1,4,1,1,0
51646068,33157931,34.0343664,108.755141,-3.70342,0.840159,-2.24683,-0.633879,0.156789,0.0,-0.953443,-0.0321684,-0.0475561,-0.0383749,-0.102455,0.0459952,0.0967945,-0.42351,3.35971,0.390507,-3.06185,-0.126316,426.876,2.31506,0.260962,0.388051,0.152696,0.109076,inf,inf,inf,inf,1,1,1,1,2,0,2,1,4,1,1,0
51740419,33157931,34.0343664,108.755141,-3.80014,0.836818,-2.25285,-0.633879,0.156789,0.0,-0.949707,-0.0469789,-0.0529668,-0.0465562,-0.102455,0.0459952,0.0967945,1.18965,-2.88701,-0.641382,-3.06345,-0.126316,426.876,2.32107,0.269657,0.389,0.157987,0.110885,inf,inf,inf,inf,1,1,1,1,2,0,2,1,4,1,1,0
51839737,33157931,34.0343664,108.755141,-3.90289,0.832574,-2.25928,-0.633879,0.156789,0.0,-0.956613,-0.0503015,-0.0423344,-0.0388652,-0.102455,0.0459952,0.0967945,-1.10942,-1.94352,2.20225,-3.06505,-0.126316,426.876,2.3275,0.260086,0.389034,0.150404,0.109796,inf,inf,inf,inf,1,1,1,1,2,0,2,1,4,1,1,0
51939057,33157931,34.0343664,108.755141,-4.00861,0.828065,-2.26639,-0.633879,0.156789,0.0,-0.952877,-0.056871,-0.0514354,-0.0510996,-0.102455,0.0459952,0.0967945,-0.665374,1.07728,-0.944095,-3.06655,-0.126316,426.876,2.33461,0.269692,0.39068,0.15621,0.111894,inf,inf,inf,inf,1,1,1,1,2,0,2,1,4,1,1,0
52048306,33157931,34.0343664,108.755141,-4.123,0.824146,-2.2714,-0.633879,0.156789,0.0,-0.949039,-0.0366152,-0.0495062,-0.0493781,-0.102455,0.0459952,0.0967945,-0.513737,5.00798,-0.373802,-3.06811,-0.126316,426.876,2.33963,0.261156,0.388924,0.149433,0.110759,inf,inf,inf,inf,1,1,1,1,2,0,2,1,4,1,1,0
52147625,33157931,34.0343664,108.755141,-4.22509,0.820356,-2.27535,-0.633879,0.156789,0.0,-0.95068,-0.0668361,-0.0386057,-0.038257,-0.102455,0.0459952,0.0967945,-2.29231,0.47366,2.38751,-3.06804,-0.126316,426.876,2.34358,0.270818,0.390616,0.154921,0.112812,inf,inf,inf,inf,1,1,1,1,2,0,2,1,4,1,1,0
52247103,33157931,34.0343664,108.755141,-4.32621,0.816971,-2.27879,-0.633879,0.156789,0.0,-0.934853,-0.0814636,-0.0473234,-0.0463104,-0.102455,0.0459952,0.0967945,2.29606,-4.82735,-1.83238,-3.06683,-0.126316,426.876,2.34701,0.261237,0.388205,0.1477,0.111344,inf,inf,inf,inf,1,1,1,1,2,0,2,1,4,1,1,0
52346264,33157931,34.0343664,108.755141,-4.42598,0.812805,-2.27943,-0.633879,0.156789,0.0,-0.934848,-0.072139,-0.0383986,-0.0349048,-0.102455,0.0459952,0.0967945,1.40724,0.109907,-1.84791,-3.06716,-0.126316,426.876,2.34766,0.270864,0.389923,0.152982,0.113357,inf,inf,inf,inf,1,1,1,1,2,0,2,1,4,1,1,0
52445581,33157931,34.0343664,108.755141,-4.52524,0.808494,-2.27728,-0.633879,0.156789,0.0,-0.936141,-0.0800982,-0.0252599,-0.017493,-0.102455,0.0459952,0.0967945,-0.900976,1.22046,1.58174,-3.066,-0.126316,426.876,2.34551,0.261256,0.389891,0.146013,0.112058,inf,inf,inf,inf,1,1,1,1,2,0,2,1,4,1,1,0
52539934,33157931,34.0343664,108.755141,-4.6187,0.803166,-2.27465,-0.633879,0.156789,0.0,-0.933418,-0.0925092,-0.0230685,-0.0115243,-0.102455,0.0459952,0.0967945,0.471038,-1.60808,0.025207,-3.06572,-0.126316,426.876,2.34288,0.26985,0.390995,0.150628,0.113809,inf,inf,inf,inf,1,1,1,1,2,0,2,1,4,1,1,0
52639252,33157931,34.0343664,108.755141,-4.71476,0.796597,-2.27326,-0.633879,0.156789,0.0,-0.926965,-0.0956583,-0.0300318,-0.0162933,-0.102455,0.0459952,0.0967945,0.790862,-2.80809,-0.679564,-3.06457,-0.126316,426.876,2.34149,0.260337,0.388537,0.1438,0.112188,inf,inf,inf,inf,1,1,1,1,2,0,2,1,4,1,1,0
52748503,33157931,34.0343664,108.755141,-4.81737,0.785972,-2.27369,-0.633879,0.156789,0.0,-0.926103,-0.0832939,-0.035645,-0.0216772,-0.102455,0.0459952,0.0967945,-0.664044,5.22123,-0.579808,-3.06545,-0.126316,426.876,2.34192,0.270787,0.390997,0.149538,0.114464,inf,inf,inf,inf,1,1,1,1,2,0,2,1,4,1,1,0
52847822,33157931,34.0343664,108.755141,-4.91246,0.777915,-2.27487,-0.633879,0.156789,0.0,-0.923799,-0.103614,-0.0324057,-0.0183295,-0.102455,0.0459952,0.0967945,-2.39116,2.73293,2.37388,-3.06485,-0.126316,426.876,2.3431,0.261127,0.388523,0.142825,0.112784,inf,inf,inf,inf,1,1,1,1,2,0,2,1,4,1,1,0
52947141,33157931,34.0343664,108.755141,-5.01053,0.770518,-2.27622,-0.633879,0.156789,0.0,-0.917891,-0.120289,-0.0482324,-0.0335465,-0.102455,0.0459952,0.0967945,2.60963,-5.28259,-1.11195,-3.06385,-0.126316,426.876,2.34445,0.270595,0.390366,0.147758,0.114748,inf,inf,inf,inf,1,1,1,1,2,0,2,1,4,1,1,0
53046590,33157931,34.0343664,108.755141,-5.10679,0.765471,-2.27688,-0.633879,0.156789,0.0,-0.923073,-0.110858,-0.055407,-0.0388883,-0.102455,0.0459952,0.0967945,2.12964,-2.2367,-2.35603,-3.06408,-0.126316,426.876,2.3451,0.261058,0.387888,0.141342,0.113031,inf,inf,inf,inf,1,1,1,1,2,0,2,1,4,1,1,0
53140812,33157931,34.0343664,108.755141,-5.19668,0.760969,-2.27669,-0.633879,0.156789,0.0,-0.923592,-0.11487,-0.0493645,-0.0307515,-0.102455,0.0459952,0.0967945,0.586498,-0.34322,-1.3943,-3.06402,-0.126316,426.876,2.34491,0.269499,0.391513,0.14578,0.114991,inf,inf,inf,inf,1,1,1,1,2,0,2,1,4,1,1,0
53240131,33157931,34.0343664,108.755141,-5.28993,0.754735,-2.27708,-0.633879,0.156789,0.0,-0.92862,-0.116213,-0.0426797,-0.0228284,-0.102455,0.0459952,0.0967945,1.77836,-1.25952,-1.14472,-3.06453,-0.126316,426.876,2.34531,0.259934,0.389002,0.13943,0.113202,inf,inf,inf,inf,1,1,1,1,2,0,2,1,4,1,1,0
53339638,33157931,34.0343664,108.755141,-5.38174,0.746783,-2.28133,-0.633879,0.156789,0.0,-0.929224,-0.121484,-0.0410768,-0.0243217,-0.102455,0.0459952,0.0967945,1.30817,-2.94044,-0.339996,-3.06381,-0.126316,426.876,2.34956,0.269215,0.39092,0.144383,0.115164,inf,inf,inf,inf,1,1,1,1,2,0,2,1,4,1,1,0
53443734,33157931,34.0343664,108.755141,-5.47822,0.734099,-2.28973,-0.633879,0.156789,0.0,-0.935778,-0.132272,-0.0376101,-0.0273526,-0.102455,0.0459952,0.0967945,-1.38768,-2.64853,2.06335,-3.06468,-0.126316,426.876,2.35796,0.259781,0.388421,0.138262,0.113342,inf,inf,inf,inf,1,1,1,1,2,0,2,1,4,1,1,0
53543055,33157931,34.0343664,108.755141,-5.57116,0.718709,-2.29971,-0.633879,0.156789,0.0,-0.925139,-0.137034,-0.0514656,-0.0481817,-0.102455,0.0459952,0.0967945,2.25985,-3.83356,-2.58601,-3.06418,-0.126316,426.876,2.36794,0.269002,0.39036,0.143152,0.11527,inf,inf,inf,inf,1,1,1,1,2,0,2,1,4,1,1,0
53642372,33157931,34.0343664,108.755141,-5.66545,0.702035,-2.30709,-0.633879,0.156789,0.0,-0.932131,-0.135834,-0.0430362,-0.0435337,-0.102455,0.0459952,0.0967945,0.33755,3.04858,-1.15003,-3.065,-0.126316,426.876,2.37532,0.259486,0.387856,0.137128,0.113402,inf,inf,inf,inf,1,1,1,1,2,0,2,1,4,1,1,0
53741708,33157931,34.0343664,108.755141,-5.76209,0.682741,-2.31289,-0.633879,0.156789,0.0,-0.943294,-0.14021,-0.0311293,-0.0337827,-0.102455,0.0459952,0.0967945,-2.06227,3.33177,2.04806,-3.06449,-0.126316,426.876,2.38111,0.26864,0.389822,0.141831,0.115272,inf,inf,inf,inf,1,1,1,1,2,0,2,1,4,1,1,0
53841025,33157931,34.0343664,108.755141,-5.85895,0.663674,-2.31804,-0.633879,0.156789,0.0,-0.941642,-0.150267,-0.0299208,-0.034252,-0.102455,0.0459952,0.0967945,-0.176419,1.58186,-0.401421,-3.06392,-0.126316,426.876,2.38627,0.259264,0.389713,0.136017,0.113629,inf,inf,inf,inf,1,1,1,1,2,0,2,1,4,1,1,0
53940330,33157931,34.0343664,108.755141,-5.95646,0.645301,-2.32429,-0.633879,0.156789,0.0,-0.946009,-0.157101,-0.0256187,-0.0329061,-0.102455,0.0459952,0.0967945,1.13255,-0.730474,-0.518375,-3.06428,-0.126316,426.876,2.39252,0.268356,0.39173,0.140623,0.115465,inf,inf,inf,inf,1,1,1,1,2,0,2,1,4,1,1,0
54039695,33157931,34.0343664,108.755141,-6.05455,0.630144,-2.33285,-0.633879,0.156789,0.0,-0.946924,-0.149226,-0.0257153,-0.0386227,-0.102455,0.0459952,0.0967945,2.23397,-1.7572,-2.17322,-3.06367,-0.126316,426.876,2.40108,0.259042,0.389176,0.135062,0.113556,inf,inf,inf,inf,1,1,1,1,2,0,2,1,4,1,1,0
54148902,33157931,34.0343664,108.755141,-6.16294,0.617701,-2.3422,-0.633879,0.156789,0.0,-0.957516,-0.131848,-0.018038,-0.0365173,-0.102455,0.0459952,0.0967945,0.463239,2.37198,-0.642741,-3.06427,-0.126316,426.876,2.41043,0.269012,0.391904,0.140092,0.115589,inf,inf,inf,inf,1,1,1,1,2,0,2,1,4,1,1,0
54238284,33157931,34.0343664,108.755141,-6.25268,0.605472,-2.3497,-0.633879,0.156789,0.0,-0.963462,-0.14462,-0.00616337,-0.028907,-0.102455,0.0459952,0.0967945,-2.0263,-2.11899,3.19947,-3.06408,-0.126316,426.876,2.41792,0.258787,0.388636,0.13419,0.11342,inf,inf,inf,inf,1,1,1,1,2,0,2,1,4,1,1,0
54347535,33157931,34.0343664,108.755141,-6.36348,0.590077,-2.36028,-0.633879,0.156789,0.0,-0.959057,-0.136715,-0.0159381,-0.0445506,-0.102455,0.0459952,0.0967945,0.817164,-1.53616,-1.18835,-3.06364,-0.126316,426.876,2.42851,0.268695,0.391374,0.139183,0.115416,inf,inf,inf,inf,1,1,1,1,2,0,2,1,4,1,1,0
54441888,33157931,34.0343664,108.755141,-6.46086,0.575433,-2.36974,-0.633879,0.156789,0.0,-0.965624,-0.14699,-0.00349665,-0.0379363,-0.102455,0.0459952,0.0967945,0.142962,-2.0832,-0.400295,-3.06413,-0.126316,426.876,2.43797,0.25854,0.38811,0.133408,0.113233,inf,inf,inf,inf,1,1,1,1,2,0,2,1,4,1,1,0
54541213,33157931,34.0343664,108.755141,-6.56563,0.55955,-2.37882,-0.633879,0.156789,0.0,-0.972576,-0.13184,0.00631565,-0.033522,-0.102455,0.0459952,0.0967945,0.298844,-0.965345,-0.786839,-3.06446,-0.126316,426.876,2.44705,0.267469,0.392606,0.138025,0.115255,inf,inf,inf,inf,1,1,1,1,2,0,2,1,4,1,1,0
54640559,33157931,34.0343664,108.755141,-6.66955,0.5442,-2.38525,-0.633879,0.156789,0.0,-0.972785,-0.127378,0.0223523,-0.020646,-0.102455,0.0459952,0.0967945,-1.35467,0.742218,1.58375,-3.06441,-0.126316,426.876,2.45348,0.258261,0.389999,0.132953,0.113305,inf,inf,inf,inf,1,1,1,1,2,0,2,1,4,1,1,0
54739844,33157931,34.0343664,108.755141,-6.77281,0.529077,-2.39146,-0.633879,0.156789,0.0,-0.974172,-0.11796,0.026009,-0.0204275,-0.102455,0.0459952,0.0967945,-0.401658,3.83137,-0.677939,-3.06513,-0.126316,426.876,2.45969,0.267147,0.39209,0.13748,0.115022,inf,inf,inf,inf,1,1,1,1,2,0,2,1,4,1,1,0
54849095,33157931,34.0343664,108.755141,-6.88424,0.516998,-2.39459,-0.633879,0.156789,0.0,-0.97588,-0.132014,0.0427166,-0.00442693,-0.102455,0.0459952,0.0967945,-1.79828,-1.46615,2.3643,-3.06498,-0.126316,426.876,2.46282,0.258864,0.39017,0.132821,0.113258,inf,inf,inf,inf,1,1,1,1,2,0,2,1,4,1,1,0
54938589,33157931,34.0343664,108.755141,-6.97439,0.510491,-2.39581,-0.633879,0.156789,0.0,-0.962164,-0.107693,0.034798,-0.0123216,-0.102455,0.0459952,0.0967945,2.60932,-0.296755,-3.13695,-3.06551,-0.126316,426.876,2.46404,0.266845,0.39157,0.136919,0.114725,inf,inf,inf,inf,1,1,1,1,2,0,2,1,4,1,1,0
55047731,33157931,34.0343664,108.755141,-7.08257,0.502991,-2.39703,-0.633879,0.156789,0.0,-0.963031,-0.102222,0.0424723,-0.00495753,-0.102455,0.0459952,0.0967945,-0.0408562,3.82881,-1.13534,-3.06671,-0.126316,426.876,2.46525,0.258522,0.389641,0.132301,0.11294,inf,inf,inf,inf,1,1,1,1,2,0,2,1,4,1,1,0
55147076,33157931,34.0343664,108.755141,-7.17964,0.495793,-2.3974,-0.633879,0.156789,0.0,-0.964192,-0.0985655,0.045681,-0.00134761,-0.102455,0.0459952,0.0967945,-0.454511,-0.443991,1.21133,-3.06678,-0.126316,426.876,2.46563,0.267371,0.391743,0.136966,0.114616,inf,inf,inf,inf,1,1,1,1,2,0,2,1,4,1,1,0
55246369,33157931,34.0343664,108.755141,-7.27709,0.489966,-2.39681,-0.633879,0.156789,0.0,-0.958874,-0.0968497,0.043928,-0.00171829,-0.102455,0.0459952,0.0967945,0.219637,0.346174,-0.646902,-3.06733,-0.126316,426.876,2.46504,0.25826,0.389106,0.132042,0.112622,inf,inf,inf,inf,1,1,1,1,2,0,2,1,4,1,1,0
55345689,33157931,34.0343664,108.755141,-7.3749,0.484796,-2.39586,-0.633879,0.156789,0.0,-0.959459,-0.0948874,0.0523228,0.00793682,-0.102455,0.0459952,0.0967945,-0.724365,0.026459,1.32141,-3.06758,-0.126316,426.876,2.46408,0.267079,0.393678,0.136699,0.114539,inf,inf,inf,inf,1,1,1,1,2,0,2,1,4,1,1,0
55445008,33157931,34.0343664,108.755141,-7.4731,0.478456,-2.39434,-0.633879,0.156789,0.0,-0.959245,-0.0858558,0.0489289,0.00602686,-0.102455,0.0459952,0.0967945,-0.273118,0.492875,0.397332,-3.06777,-0.126316,426.876,2.46256,0.257926,0.390992,0.131819,0.112532,inf,inf,inf,inf,1,1,1,1,2,0,2,1,4,1,1,0
55549292,33157931,34.0343664,108.755141,-7.57705,0.470838,-2.39207,-0.633879,0.156789,0.0,-0.963515,-0.100181,0.0558565,0.0145661,-0.102455,0.0459952,0.0967945,-1.19192,-4.29541,2.54027,-3.06768,-0.126316,426.876,2.4603,0.266711,0.393117,0.136467,0.114147,inf,inf,inf,inf,1,1,1,1,2,0,2,1,4,1,1,0
55638678,33157931,34.0343664,108.755141,-7.66651,0.465485,-2.39073,-0.633879,0.156789,0.0,-0.966553,-0.105143,0.0413379,0.00117874,-0.102455,0.0459952,0.0967945,0.213287,-4.68417,0.444946,-3.06668,-0.126316,426.876,2.45895,0.256738,0.389743,0.131215,0.111938,inf,inf,inf,inf,1,1,1,1,2,0,2,1,4,1,1,0
55748050,33157931,34.0343664,108.755141,-7.77711,0.459502,-2.39056,-0.633879,0.156789,0.0,-0.959805,-0.068677,0.028504,-0.011214,-0.102455,0.0459952,0.0967945,0.783427,4.00761,-2.10847,-3.06745,-0.126316,426.876,2.45879,0.266347,0.392558,0.136614,0.113778,inf,inf,inf,inf,1,1,1,1,2,0,2,1,4,1,1,0
55847276,33157931,34.0343664,108.755141,-7.87632,0.45619,-2.39057,-0.633879,0.156789,0.0,-0.97008,-0.083046,0.0348436,-0.00411285,-0.102455,0.0459952,0.0967945,-2.26053,3.40242,1.51287,-3.06667,-0.126316,426.876,2.45879,0.257334,0.389888,0.131986,0.11181,inf,inf,inf,inf,1,1,1,1,2,0,2,1,4,1,1,0
55946566,33157931,34.0343664,108.755141,-7.97523,0.454291,-2.38937,-0.633879,0.156789,0.0,-0.965334,-0.0925434,0.0329371,-0.0041306,-0.102455,0.0459952,0.0967945,-0.261169,-2.04508,0.174876,-3.06537,-0.126316,426.876,2.45759,0.26609,0.391999,0.136773,0.113383,inf,inf,inf,inf,1,1,1,1,2,0,2,1,4,1,1,0
56040919,33157931,34.0343664,108.755141,-8.0696,0.451211,-2.38507,-0.633879,0.156789,0.0,-0.96654,-0.086038,0.0356095,0.00298651,-0.102455,0.0459952,0.0967945,-0.992272,1.00512,0.76647,-3.06518,-0.126316,426.876,2.4533,0.256235,0.391078,0.131551,0.111467,inf,inf,inf,inf,1,1,1,1,2,0,2,1,4,1,1,0
56140239,33157931,34.0343664,108.755141,-8.17042,0.446585,-2.38011,-0.633879,0.156789,0.0,-0.963167,-0.0882254,0.030685,0.00254252,-0.102455,0.0459952,0.0967945,0.808653,2.93535,-1.85322,-3.06525,-0.126316,426.876,2.44833,0.264928,0.393205,0.136348,0.113024,inf,inf,inf,inf,1,1,1,1,2,0,2,1,4,1,1,0
56249491,33157931,34.0343664,108.755141,-8.27884,0.439797,-2.37526,-0.633879,0.156789,0.0,-0.964072,-0.114917,0.0385468,0.0143955,-0.102455,0.0459952,0.0967945,-0.627287,-2.12415,2.03888,-3.0649,-0.126316,426.876,2.44349,0.256816,0.391223,0.132379,0.1113,inf,inf,inf,inf,1,1,1,1,2,0,2,1,4,1,1,0
56338875,33157931,34.0343664,108.755141,-8.36615,0.432839,-2.37238,-0.633879,0.156789,0.0,-0.964726,-0.115117,0.0270893,0.00522291,-0.102455,0.0459952,0.0967945,0.522152,-7.106,1.00778,-3.06413,-0.126316,426.876,2.4406,0.264668,0.39264,0.136729,0.112621,inf,inf,inf,inf,1,1,1,1,2,0,2,1,4,1,1,0
56448126,33157931,34.0343664,108.755141,-8.47231,0.42365,-2.37116,-0.633879,0.156789,0.0,-0.966359,-0.111462,0.0144934,-0.00620122,-0.102455,0.0459952,0.0967945,0.393768,-0.0216217,-1.53156,-3.06423,-0.126316,426.876,2.43939,0.256599,0.390647,0.132517,0.110868,inf,inf,inf,inf,1,1,1,1,2,0,2,1,4,1,1,0
56547535,33157931,34.0343664,108.755141,-8.56853,0.414049,-2.37066,-0.633879,0.156789,0.0,-0.960358,-0.100127,0.0153087,-0.00465284,-0.102455,0.0459952,0.0967945,-1.40583,3.81678,0.655156,-3.06458,-0.126316,426.876,2.43889,0.265355,0.392739,0.13746,0.112376,inf,inf,inf,inf,1,1,1,1,2,0,2,1,4,1,1,0
56641797,33157931,34.0343664,108.755141,-8.66256,0.405023,-2.37099,-0.633879,0.156789,0.0,-0.96108,-0.114815,0.0121538,-0.00771513,-0.102455,0.0459952,0.0967945,0.11154,-1.16673,-0.0888992,-3.0638,-0.126316,426.876,2.43921,0.255531,0.391792,0.132302,0.110506,inf,inf,inf,inf,1,1,1,1,2,0,2,1,4,1,1,0
56741116,33157931,34.0343664,108.755141,-8.76528,0.396407,-2.37299,-0.633879,0.156789,0.0,-0.962897,-0.118631,0.012616,-0.00858168,-0.102455,0.0459952,0.0967945,-0.504036,-0.510616,0.841758,-3.06373,-0.126316,426.876,2.44122,0.264238,0.393888,0.137154,0.111987,inf,inf,inf,inf,1,1,1,1,2,0,2,1,4,1,1,0
56840438,33157931,34.0343664,108.755141,-8.8683,0.388888,-2.37724,-0.633879,0.156789,0.0,-0.965265,-0.113604,0.00508551,-0.0191577,-0.102455,0.0459952,0.0967945,1.04856,2.54488,-2.72402,-3.06359,-0.126316,426.876,2.44546,0.255343,0.391171,0.132662,0.110076,inf,inf,inf,inf,1,1,1,1,2,0,2,1,4,1,1,0
56949687,33157931,34.0343664,108.755141,-8.98263,0.382415,-2.38254,-0.633879,0.156789,0.0,-0.966188,-0.11681,0.0141104,-0.0136694,-0.102455,0.0459952,0.0967945,-0.54243,0.0322263,1.54637,-3.06372,-0.126316,426.876,2.45077,0.264969,0.393939,0.138085,0.111736,inf,inf,inf,inf,1,1,1,1,2,0,2,1,4,1,1,0
57039073,33157931,34.0343664,108.755141,-9.0743,0.377544,-2.38483,-0.633879,0.156789,0.0,-0.970531,-0.125471,0.0172987,-0.0109474,-0.102455,0.0459952,0.0967945,-1.05223,-6.57494,2.12291,-3.06295,-0.126316,426.876,2.45306,0.255157,0.390507,0.132862,0.109611,inf,inf,inf,inf,1,1,1,1,2,0,2,1,4,1,1,0
57143357,33157931,34.0343664,108.755141,-9.17969,0.371972,-2.38513,-0.633879,0.156789,0.0,-0.977001,-0.105033,0.0168027,-0.010008,-0.102455,0.0459952,0.0967945,-1.03576,2.22639,1.28679,-3.06365,-0.126316,426.876,2.45336,0.26389,0.395044,0.137711,0.111323,inf,inf,inf,inf,1,1,1,1,2,0,2,1,4,1,1,0
57242705,33157931,34.0343664,108.755141,-9.28114,0.366617,-2.38404,-0.633879,0.156789,0.0,-0.964141,-0.120285,0.0106285,-0.0136686,-0.102455,0.0459952,0.0967945,1.36148,-2.09396,-1.18673,-3.06328,-0.126316,426.876,2.45227,0.254968,0.392288,0.132974,0.109408,inf,inf,inf,inf,1,1,1,1,2,0,2,1,4,1,1,0
57342084,33157931,34.0343664,108.755141,-9.3843,0.36114,-2.38044,-0.633879,0.156789,0.0,-0.968387,-0.117243,0.0160441,-0.00390417,-0.102455,0.0459952,0.0967945,0.891557,-2.11463,0.112473,-3.06386,-0.126316,426.876,2.44867,0.263717,0.394348,0.138151,0.110857,inf,inf,inf,inf,1,1,1,1,2,0,2,1,4,1,1,0
57441314,33157931,34.0343664,108.755141,-9.48529,0.35295,-2.37593,-0.633879,0.156789,0.0,-0.966891,-0.128487,0.0188678,0.00349032,-0.102455,0.0459952,0.0967945,-0.192315,-3.74372,1.14795,-3.06388,-0.126316,426.876,2.44415,0.254777,0.391616,0.133364,0.108964,inf,inf,inf,inf,1,1,1,1,2,0,2,1,4,1,1,0
57540634,33157931,34.0343664,108.755141,-9.58454,0.342613,-2.3718,-0.633879,0.156789,0.0,-0.966053,-0.118269,0.0101835,-0.00141445,-0.102455,0.0459952,0.0967945,0.274121,2.41406,-1.9311,-3.06473,-0.126316,426.876,2.44003,0.263543,0.393662,0.138292,0.110364,inf,inf,inf,inf,1,1,1,1,2,0,2,1,4,1,1,0
57640108,33157931,34.0343664,108.755141,-9.68336,0.331172,-2.36786,-0.633879,0.156789,0.0,-0.966009,-0.117901,0.0141,0.00595052,-0.102455,0.0459952,0.0967945,-1.53443,4.62989,1.27097,-3.06531,-0.126316,426.876,2.43609,0.254588,0.390946,0.133501,0.108495,inf,inf,inf,inf,1,1,1,1,2,0,2,1,4,1,1,0
57739270,33157931,34.0343664,108.755141,-9.78148,0.318339,-2.36302,-0.633879,0.156789,0.0,-0.963544,-0.131425,0.00824765,0.00433728,-0.102455,0.0459952,0.0967945,-0.16494,-0.783766,0.830185,-3.0648,-0.126316,426.876,2.43125,0.263369,0.392958,0.138504,0.109878,inf,inf,inf,inf,1,1,1,1,2,0,2,1,4,1,1,0
57848521,33157931,34.0343664,108.755141,-9.89007,0.302321,-2.36299,-0.633879,0.156789,0.0,-0.95835,-0.140154,-0.00264624,-0.00702321,-0.102455,0.0459952,0.0967945,0.299026,-1.29393,-0.584203,-3.06429,-0.126316,426.876,2.43122,0.255252,0.390948,0.134133,0.108218,inf,inf,inf,inf,1,1,1,1,2,0,2,1,4,1,1,0
57937927,33157931,34.0343664,108.755141,-9.97973,0.28704,-2.36509,-0.633879,0.156789,0.0,-0.958315,-0.144366,0.000201588,-0.00606901,-0.102455,0.0459952,0.0967945,-1.10264,-0.00313523,1.89372,-3.06435,-0.126316,426.876,2.43331,0.263195,0.394752,0.138663,0.10968,inf,inf,inf,inf,1,1,1,1,2,0,2,1,4,1,1,0
58047158,33157931,34.0343664,108.755141,-10.0929,0.267156,-2.36754,-0.633879,0.156789,0.0,-0.959119,-0.15236,-0.01293,-0.02051,-0.102455,0.0459952,0.0967945,0.42337,-1.6676,-0.251252,-3.06336,-0.126316,426.876,2.43577,0.2551,0.39271,0.134328,0.108034,inf,inf,inf,inf,1,1,1,1,2,0,2,1,4,1,1,0
58146549,33157931,34.0343664,108.755141,-10.1993,0.248732,-2.3709,-0.633879,0.156789,0.0,-0.960322,-0.134248,-0.01825,-0.0275417,-0.102455,0.0459952,0.0967945,1.75692,0.816585,-3.23275,-3.06381,-0.126316,426.876,2.43913,0.263971,0.394716,0.139282,0.109378,inf,inf,inf,inf,1,1,1,1,2,0,2,1,4,1,1,0
58240832,33157931,34.0343664,108.755141,-10.2991,0.229109,-2.37493,-0.633879,0.156789,0.0,-0.967026,-0.153376,-0.00715734,-0.0190007,-0.102455,0.0459952,0.0967945,-0.233601,-0.627616,-0.0866978,-3.06244,-0.126316,426.876,2.44316,0.254086,0.391282,0.133959,0.10737,inf,inf,inf,inf,1,1,1,1,2,0,2,1,4,1,1,0
58340150,33157931,34.0343664,108.755141,-10.4044,0.205319,-2.38016,-0.633879,0.156789,0.0,-0.968643,-0.150828,-0.00366304,-0.0189441,-0.102455,0.0459952,0.0967945,0.166207,-0.765355,0.255036,-3.0629,-0.126316,426.876,2.44839,0.262918,0.395754,0.138982,0.108991,inf,inf,inf,inf,1,1,1,1,2,0,2,1,4,1,1,0
58439591,33157931,34.0343664,108.755141,-10.5087,0.184233,-2.3873,-0.633879,0.156789,0.0,-0.962083,-0.149489,-0.00714705,-0.0274628,-0.102455,0.0459952,0.0967945,1.21942,-1.71386,-2.31242,-3.06193,-0.126316,426.876,2.45552,0.253827,0.392986,0.134129,0.10718,inf,inf,inf,inf,1,1,1,1,2,0,2,1,4,1,1,0
58548718,33157931,34.0343664,108.755141,-10.6241,0.163497,-2.39617,-0.633879,0.156789,0.0,-0.971973,-0.136144,0.0116128,-0.0153017,-0.102455,0.0459952,0.0967945,-0.970972,2.33613,1.71327,-3.06209,-0.126316,426.876,2.4644,0.263585,0.395649,0.139595,0.108684,inf,inf,inf,inf,1,1,1,1,2,0,2,1,4,1,1,0
58638162,33157931,34.0343664,108.755141,-10.7181,0.14758,-2.4046,-0.633879,0.156789,0.0,-0.963959,-0.123039,0.0122463,-0.0209296,-0.102455,0.0459952,0.0967945,-1.78243,-1.29159,2.34613,-3.06115,-0.126316,426.876,2.47283,0.25371,0.392193,0.134141,0.106701,inf,inf,inf,inf,1,1,1,1,2,0,2,1,4,1,1,0
58747356,33157931,34.0343664,108.755141,-10.8327,0.129188,-2.41643,-0.633879,0.156789,0.0,-0.961623,-0.113656,0.00464088,-0.0366324,-0.102455,0.0459952,0.0967945,0.720809,1.8412,-1.05184,-3.06124,-0.126316,426.876,2.48466,0.263483,0.394826,0.139507,0.108177,inf,inf,inf,inf,1,1,1,1,2,0,2,1,4,1,1,0
58846675,33157931,34.0343664,108.755141,-10.9377,0.112993,-2.42921,-0.633879,0.156789,0.0,-0.957049,-0.108452,0.0162183,-0.0343435,-0.102455,0.0459952,0.0967945,0.06719,0.68187,0.196265,-3.06146,-0.126316,426.876,2.49744,0.254442,0.392082,0.134554,0.106407,inf,inf,inf,inf,1,1,1,1,2,0,2,1,4,1,1,0
58945995,33157931,34.0343664,108.755141,-11.0428,0.0970287,-2.44123,-0.633879,0.156789,0.0,-0.953307,-0.0924226,0.0190583,-0.0396862,-0.102455,0.0459952,0.0967945,2.29403,3.60594,-2.54888,-3.06191,-0.126316,426.876,2.50946,0.263369,0.393994,0.139543,0.107688,inf,inf,inf,inf,1,1,1,1,2,0,2,1,4,1,1,0
59040346,33157931,34.0343664,108.755141,-11.1412,0.0851619,-2.4491,-0.633879,0.156789,0.0,-0.950954,-0.0840723,0.0321583,-0.0312082,-0.102455,0.0459952,0.0967945,1.14028,3.03986,-2.00543,-3.06147,-0.126316,426.876,2.51733,0.253443,0.39306,0.134027,0.106031,inf,inf,inf,inf,1,1,1,1,2,0,2,1,4,1,1,0
59139665,33157931,34.0343664,108.755141,-11.2444,0.0748582,-2.45471,-0.633879,0.156789,0.0,-0.959975,-0.0749151,0.0569139,-0.00892809,-0.102455,0.0459952,0.0967945,-2.85021,1.88291,3.21847,-3.06243,-0.126316,426.876,2.52294,0.262321,0.394976,0.138954,0.107305,inf,inf,inf,inf,1,1,1,1,2,0,2,1,4,1,1,0
59249040,33157931,34.0343664,108.755141,-11.3571,0.0613279,-2.45507,-0.633879,0.156789,0.0,-0.949156,-0.0774002,0.0543902,-0.00901948,-0.102455,0.0459952,0.0967945,0.502374,-1.31429,-0.976242,-3.06299,-0.126316,426.876,2.5233,0.254151,0.392938,0.134586,0.105767,inf,inf,inf,inf,1,1,1,1,2,0,2,1,4,1,1,0
59338368,33157931,34.0343664,108.755141,-11.4487,0.050033,-2.45309,-0.633879,0.156789,0.0,-0.942797,-0.0642323,0.0610341,0.00083286,-0.102455,0.0459952,0.0967945,0.267239,1.32061,-0.978154,-3.06383,-0.126316,426.876,2.52131,0.262179,0.394156,0.138984,0.106843,inf,inf,inf,inf,1,1,1,1,2,0,2,1,4,1,1,0
59447554,33157931,34.0343664,108.755141,-11.5578,0.034749,-2.45086,-0.633879,0.156789,0.0,-0.936266,-0.0712821,0.0641026,0.00618156,-0.102455,0.0459952,0.0967945,1.42012,-0.989054,-1.50979,-3.06276,-0.126316,426.876,2.51909,0.253994,0.39214,0.134519,0.10532,inf,inf,inf,inf,1,1,1,1,2,0,2,1,4,1,1,0
59541906,33157931,34.0343664,108.755141,-11.6499,0.0217102,-2.44863,-0.633879,0.156789,0.0,-0.933895,-0.0580167,0.0678139,0.0114733,-0.102455,0.0459952,0.0967945,0.077629,-0.84724,0.187784,-3.06297,-0.126316,426.876,2.51686,0.26203,0.393326,0.138922,0.106381,inf,inf,inf,inf,1,1,1,1,2,0,2,1,4,1,1,0
59641229,33157931,34.0343664,108.755141,-11.7471,0.00858556,-2.44726,-0.633879,0.156789,0.0,-0.926086,-0.0481709,0.0605913,0.00497386,-0.102455,0.0459952,0.0967945,1.44788,2.71374,-2.47212,-3.06337,-0.126316,426.876,2.51549,0.252867,0.393115,0.133826,0.10496,inf,inf,inf,inf,1,1,1,1,2,0,2,1,4,1,1,0
59740545,33157931,34.0343664,108.755141,-11.8462,-0.0051201,-2.44936,-0.633879,0.156789,0.0,-0.929011,-0.0647382,0.0728845,0.0150173,-0.102455,0.0459952,0.0967945,-1.37674,-2.72015,2.73379,-3.06297,-0.126316,426.876,2.51759,0.261767,0.394997,0.139065,0.106228,inf,inf,inf,inf,1,1,1,1,2,0,2,1,4,1,1,0
59844829,33157931,34.0343664,108.755141,-11.9489,-0.014337,-2.44851,-0.633879,0.156789,0.0,-0.925928,-0.0337734,0.0599074,0.00324652,-0.102455,0.0459952,0.0967945,-0.487026,4.91577,0.562741,-3.06321,-0.126316,426.876,2.51674,0.252602,0.392312,0.133935,0.104544,inf,inf,inf,inf,1,1,1,1,2,0,2,1,4,1,1,0
59944148,33157931,34.0343664,108.755141,-12.0476,-0.0183926,-2.44516,-0.633879,0.156789,0.0,-0.917761,-0.0427444,0.0550594,0.00247604,-0.102455,0.0459952,0.0967945,1.46508,-4.38907,0.51451,-3.06236,-0.126316,426.876,2.51339,0.261506,0.394178,0.138871,0.105777,inf,inf,inf,inf,1,1,1,1,2,0,2,1,4,1,1,0
60043538,33157931,34.0343664,108.755141,-12.1464,-0.0223191,-2.43906,-0.633879,0.156789,0.0,-0.914533,-0.0259074,0.0502099,0.0040535,-0.102455,0.0459952,0.0967945,2.17185,-2.67626,-1.51279,-3.06263,-0.126316,426.876,2.50729,0.252569,0.391521,0.134209,0.104159,inf,inf,inf,inf,1,1,1,1,2,0,2,1,4,1,1,0
60142802,33157931,34.0343664,108.755141,-12.2451,-0.0268806,-2.4299,-0.633879,0.156789,0.0,-0.92208,-0.0229223,0.0626,0.024565,-0.102455,0.0459952,0.0967945,-1.48907,-0.543393,1.78351,-3.0626,-0.126316,426.876,2.49813,0.261505,0.393373,0.139216,0.105387,inf,inf,inf,inf,1,1,1,1,2,0,2,1,4,1,1,0
60242104,33157931,34.0343664,108.755141,-12.3416,-0.0326154,-2.41783,-0.633879,0.156789,0.0,-0.919199,-0.0121835,0.0518431,0.024127,-0.102455,0.0459952,0.0967945,-0.166986,2.26897,-0.97513,-3.06221,-0.126316,426.876,2.48606,0.252431,0.390741,0.134111,0.103754,inf,inf,inf,inf,1,1,1,1,2,0,2,1,4,1,1,0
60341423,33157931,34.0343664,108.755141,-12.4364,-0.0403833,-2.40522,-0.633879,0.156789,0.0,-0.916975,-0.0108083,0.0447735,0.0271418,-0.102455,0.0459952,0.0967945,-0.73785,1.42659,-0.0235999,-3.06372,-0.126316,426.876,2.47344,0.261374,0.392558,0.139077,0.104964,inf,inf,inf,inf,1,1,1,1,2,0,2,1,4,1,1,0
60440742,33157931,34.0343664,108.755141,-12.5304,-0.0487681,-2.39529,-0.633879,0.156789,0.0,-0.911363,-0.036032,0.0398692,0.0292999,-0.102455,0.0459952,0.0967945,-0.587879,-3.71006,1.84251,-3.06316,-0.126316,426.876,2.46352,0.252279,0.392401,0.134072,0.103632,inf,inf,inf,inf,1,1,1,1,2,0,2,1,4,1,1,0
60540062,33157931,34.0343664,108.755141,-12.624,-0.0582748,-2.38731,-0.633879,0.156789,0.0,-0.907398,-0.0226999,0.0170158,0.0122098,-0.102455,0.0459952,0.0967945,1.10323,-0.489892,-1.36209,-3.06312,-0.126316,426.876,2.45554,0.261231,0.394238,0.139014,0.104841,inf,inf,inf,inf,1,1,1,1,2,0,2,1,4,1,1,0
60644368,33157931,34.0343664,108.755141,-12.7207,-0.0666679,-2.37847,-0.633879,0.156789,0.0,-0.913833,-0.0284677,0.0115902,0.0141176,-0.102455,0.0459952,0.0967945,-1.22372,-2.9286,2.48712,-3.06387,-0.126316,426.876,2.4467,0.252194,0.391611,0.134003,0.103245,inf,inf,inf,inf,1,1,1,1,2,0,2,1,4,1,1,0
60743666,33157931,34.0343664,108.755141,-12.8117,-0.0737943,-2.36824,-0.633879,0.156789,0.0,-0.912741,-0.033396,-0.00766277,0.00374034,-0.102455,0.0459952,0.0967945,-0.444645,-1.4596,-1.24614,-3.06435,-0.126316,426.876,2.43647,0.261158,0.393423,0.13909,0.104452,inf,inf,inf,inf,1,1,1,1,2,0,2,1,4,1,1,0
60843068,33157931,34.0343664,108.755141,-12.9045,-0.0817157,-2.36182,-0.633879,0.156789,0.0,-0.909895,-0.0181169,-0.0206878,-0.00393494,-0.102455,0.0459952,0.0967945,2.37972,0.359171,-2.57133,-3.06585,-0.126316,426.876,2.43005,0.25216,0.390819,0.134228,0.102887,inf,inf,inf,inf,1,1,1,1,2,0,2,1,4,1,1,0
60942302,33157931,34.0343664,108.755141,-12.9985,-0.0902823,-2.35767,-0.633879,0.156789,0.0,-0.920179,-0.0265146,-0.0217608,-0.00180623,-0.102455,0.0459952,0.0967945,0.406535,0.34945,-0.129931,-3.0665,-0.126316,426.876,2.4259,0.261145,0.3926,0.139267,0.104077,inf,inf,inf,inf,1,1,1,1,2,0,2,1,4,1,1,0
61041621,33157931,34.0343664,108.755141,-13.0945,-0.0982853,-2.35595,-0.633879,0.156789,0.0,-0.927739,-0.0219287,-0.0258208,-0.00456574,-0.102455,0.0459952,0.0967945,-0.311908,-0.734013,0.774562,-3.06682,-0.126316,426.876,2.42418,0.252358,0.392462,0.134325,0.102796,inf,inf,inf,inf,1,1,1,1,2,0,2,1,4,1,1,0
61141123,33157931,34.0343664,108.755141,-13.1918,-0.105686,-2.35759,-0.633879,0.156789,0.0,-0.931522,-0.0196381,-0.0336318,-0.0137404,-0.102455,0.0459952,0.0967945,-0.447472,1.64101,-0.284445,-3.06779,-0.126316,426.876,2.42581,0.261364,0.394254,0.139241,0.103977,inf,inf,inf,inf,1,1,1,1,2,0,2,1,4,1,1,0
61240258,33157931,34.0343664,108.755141,-13.2896,-0.111303,-2.35923,-0.633879,0.156789,0.0,-0.94263,-0.0212759,-0.0284912,-0.00926188,-0.102455,0.0459952,0.0967945,-2.40263,1.33218,2.51662,-3.06903,-0.126316,426.876,2.42746,0.252517,0.391632,0.134147,0.102416,inf,inf,inf,inf,1,1,1,1,2,0,2,1,4,1,1,0
61349509,33157931,34.0343664,108.755141,-13.3986,-0.116152,-2.35965,-0.633879,0.156789,0.0,-0.943417,-0.0257624,-0.039023,-0.0188134,-0.102455,0.0459952,0.0967945,0.064554,-3.12183,0.908879,-3.06955,-0.126316,426.876,2.42788,0.262464,0.394078,0.139572,0.103759,inf,inf,inf,inf,1,1,1,1,2,0,2,1,4,1,1,0
61438896,33157931,34.0343664,108.755141,-13.4878,-0.119741,-2.36302,-0.633879,0.156789,0.0,-0.944607,-0.027814,-0.047128,-0.0290248,-0.102455,0.0459952,0.0967945,1.49521,-2.25243,-2.49591,-3.06949,-0.126316,426.876,2.43125,0.252732,0.390803,0.133976,0.102044,inf,inf,inf,inf,1,1,1,1,2,0,2,1,4,1,1,0
61548204,33157931,34.0343664,108.755141,-13.5971,-0.124594,-2.36904,-0.633879,0.156789,0.0,-0.949581,-0.00776198,-0.0464355,-0.0326266,-0.102455,0.0459952,0.0967945,1.30392,1.8626,-2.12728,-3.07039,-0.126316,426.876,2.43727,0.262684,0.393214,0.139416,0.103376,inf,inf,inf,inf,1,1,1,1,2,0,2,1,4,1,1,0
61637535,33157931,34.0343664,108.755141,-13.6857,-0.129204,-2.37199,-0.633879,0.156789,0.0,-0.954811,-0.0191204,-0.0315,-0.0188105,-0.102455,0.0459952,0.0967945,-1.60554,1.13937,2.13251,-3.07061,-0.126316,426.876,2.44021,0.252989,0.389967,0.133856,0.101682,inf,inf,inf,inf,1,1,1,1,2,0,2,1,4,1,1,0
61746784,33157931,34.0343664,108.755141,-13.7933,-0.136306,-2.3737,-0.633879,0.156789,0.0,-0.957064,-0.0293484,-0.0316127,-0.0185304,-0.102455,0.0459952,0.0967945,-0.54736,-2.96742,1.7803,-3.06996,-0.126316,426.876,2.44193,0.262946,0.394841,0.139187,0.103276,inf,inf,inf,inf,1,1,1,1,2,0,2,1,4,1,1,0
61846103,33157931,34.0343664,108.755141,-13.8929,-0.141563,-2.38073,-0.633879,0.156789,0.0,-0.94858,-0.0223622,-0.0419922,-0.0339472,-0.102455,0.0459952,0.0967945,1.25566,-0.355583,-1.86649,-3.06998,-0.126316,426.876,2.44896,0.254163,0.392214,0.13404,0.101749,inf,inf,inf,inf,1,1,1,1,2,0,2,1,4,1,1,0
61945572,33157931,34.0343664,108.755141,-13.9943,-0.14756,-2.3902,-0.633879,0.156789,0.0,-0.955802,-0.0180646,-0.0336862,-0.032793,-0.102455,0.0459952,0.0967945,0.299849,4.24465,-1.33073,-3.07094,-0.126316,426.876,2.45843,0.263241,0.393933,0.138929,0.102893,inf,inf,inf,inf,1,1,1,1,2,0,2,1,4,1,1,0
62044741,33157931,34.0343664,108.755141,-14.0943,-0.149718,-2.39934,-0.633879,0.156789,0.0,-0.961881,-0.012832,-0.0205071,-0.0262462,-0.102455,0.0459952,0.0967945,-1.19558,4.43842,1.25483,-3.07034,-0.126316,426.876,2.46757,0.254412,0.391334,0.133905,0.101392,inf,inf,inf,inf,1,1,1,1,2,0,2,1,4,1,1,0
62144061,33157931,34.0343664,108.755141,-14.1937,-0.148862,-2.40907,-0.633879,0.156789,0.0,-0.955198,-0.0247904,-0.0176682,-0.0299717,-0.102455,0.0459952,0.0967945,0.058126,-2.34434,0.223787,-3.06939,-0.126316,426.876,2.4773,0.263489,0.39303,0.138685,0.102521,inf,inf,inf,inf,1,1,1,1,2,0,2,1,4,1,1,0
62248345,33157931,34.0343664,108.755141,-14.3018,-0.146354,-2.41623,-0.633879,0.156789,0.0,-0.96758,-0.0170122,-0.00751455,-0.0237367,-0.102455,0.0459952,0.0967945,-1.3,1.32166,1.41945,-3.06924,-0.126316,426.876,2.48446,0.25459,0.39045,0.133584,0.101031,inf,inf,inf,inf,1,1,1,1,2,0,2,1,4,1,1,0
62337734,33157931,34.0343664,108.755141,-14.3972,-0.143018,-2.42144,-0.633879,0.156789,0.0,-0.966694,-0.0187364,-0.00236659,-0.021453,-0.102455,0.0459952,0.0967945,-0.584271,0.290601,0.3047,-3.06892,-0.126316,426.876,2.48967,0.262724,0.393946,0.137935,0.102268,inf,inf,inf,inf,1,1,1,1,2,0,2,1,4,1,1,0
62447063,33157931,34.0343664,108.755141,-14.5119,-0.13993,-2.42918,-0.633879,0.156789,0.0,-0.967201,-0.0240367,0.0116917,-0.0128355,-0.102455,0.0459952,0.0967945,-0.837042,0.309404,1.0331,-3.06882,-0.126316,426.876,2.49741,0.254693,0.392023,0.133512,0.100966,inf,inf,inf,inf,1,1,1,1,2,0,2,1,4,1,1,0
62541335,33157931,34.0343664,108.755141,-14.609,-0.138601,-2.43379,-0.633879,0.156789,0.0,-0.962669,-0.017794,0.0139669,-0.0137347,-0.102455,0.0459952,0.0967945,0.533325,0.200083,-0.370005,-3.06818,-0.126316,426.876,2.50202,0.262824,0.393048,0.137816,0.101924,inf,inf,inf,inf,1,1,1,1,2,0,2,1,4,1,1,0
62640654,33157931,34.0343664,108.755141,-14.7123,-0.139125,-2.43548,-0.633879,0.156789,0.0,-0.962919,-0.0433067,0.0308307,0.00247459,-0.102455,0.0459952,0.0967945,-1.48944,-2.43336,2.5569,-3.06774,-0.126316,426.876,2.50371,0.253875,0.390505,0.132714,0.100462,inf,inf,inf,inf,1,1,1,1,2,0,2,1,4,1,1,0
62740071,33157931,34.0343664,108.755141,-14.8173,-0.14139,-2.43552,-0.633879,0.156789,0.0,-0.954612,-0.0363864,0.0258666,-0.00191324,-0.102455,0.0459952,0.0967945,0.655357,-0.738592,-0.470113,-3.06699,-0.126316,426.876,2.50375,0.262873,0.392174,0.137711,0.101593,inf,inf,inf,inf,1,1,1,1,2,0,2,1,4,1,1,0
62839293,33157931,34.0343664,108.755141,-14.9208,-0.145783,-2.4345,-0.633879,0.156789,0.0,-0.946037,-0.0268739,0.0223874,-0.00429478,-0.102455,0.0459952,0.0967945,0.666995,3.55394,-2.18277,-3.06701,-0.126316,426.876,2.50273,0.253918,0.389663,0.13263,0.100151,inf,inf,inf,inf,1,1,1,1,2,0,2,1,4,1,1,0
62948543,33157931,34.0343664,108.755141,-15.0342,-0.153781,-2.43306,-0.633879,0.156789,0.0,-0.945426,-0.0523903,0.0355507,0.0100293,-0.102455,0.0459952,0.0967945,-1.39193,0.848493,1.94906,-3.06543,-0.126316,426.876,2.50129,0.263834,0.391973,0.137929,0.101429,inf,inf,inf,inf,1,1,1,1,2,0,2,1,4,1,1,0
63042898,33157931,34.0343664,108.755141,-15.1322,-0.160879,-2.43247,-0.633879,0.156789,0.0,-0.935138,-0.0380914,0.0237731,-0.00138912,-0.102455,0.0459952,0.0967945,0.846432,5.16647,-1.73267,-3.06451,-0.126316,426.876,2.5007,0.253909,0.391246,0.132431,0.100101,inf,inf,inf,inf,1,1,1,1,2,0,2,1,4,1,1,0
63142216,33157931,34.0343664,108.755141,-15.237,-0.169257,-2.43194,-0.633879,0.156789,0.0,-0.937047,-0.0648683,0.0232105,-0.000984589,-0.102455,0.0459952,0.0967945,0.0898023,1.66808,0.47994,-3.06241,-0.126316,426.876,2.50017,0.262881,0.392905,0.137156,0.101211,inf,inf,inf,inf,1,1,1,1,2,0,2,1,4,1,1,0
63241534,33157931,34.0343664,108.755141,-15.3402,-0.177375,-2.43164,-0.633879,0.156789,0.0,-0.934546,-0.0688895,0.0201399,-0.00309582,-0.102455,0.0459952,0.0967945,0.250903,-2.37963,0.42221,-3.06065,-0.126316,426.876,2.49986,0.253884,0.390395,0.132443,0.0998059,inf,inf,inf,inf,1,1,1,1,2,0,2,1,4,1,1,0
63340852,33157931,34.0343664,108.755141,-15.4427,-0.185479,-2.43238,-0.633879,0.156789,0.0,-0.931761,-0.0804759,0.0186065,-0.00449494,-0.102455,0.0459952,0.0967945,-0.0345692,-0.707019,0.705822,-3.06037,-0.126316,426.876,2.50061,0.262853,0.392052,0.137212,0.100915,inf,inf,inf,inf,1,1,1,1,2,0,2,1,4,1,1,0
63440172,33157931,34.0343664,108.755141,-15.5434,-0.193559,-2.4333,-0.633879,0.156789,0.0,-0.930219,-0.0806032,0.0178034,-0.00520199,-0.102455,0.0459952,0.0967945,-0.618974,-0.642782,1.11117,-3.06002,-0.126316,426.876,2.50153,0.253871,0.389573,0.132243,0.0995134,inf,inf,inf,inf,1,1,1,1,2,0,2,1,4,1,1,0
63539544,33157931,34.0343664,108.755141,-15.6434,-0.201848,-2.43375,-0.633879,0.156789,0.0,-0.924407,-0.0817269,0.0105197,-0.0120683,-0.102455,0.0459952,0.0967945,1.62323,1.29672,-3.03955,-3.05922,-0.126316,426.876,2.50197,0.262829,0.391202,0.136993,0.100611,inf,inf,inf,inf,1,1,1,1,2,0,2,1,4,1,1,0
63648741,33157931,34.0343664,108.755141,-15.7525,-0.211837,-2.43918,-0.633879,0.156789,0.0,-0.92733,-0.0920544,0.0226352,-0.00480678,-0.102455,0.0459952,0.0967945,-1.46308,-1.09461,2.42485,-3.05913,-0.126316,426.876,2.50741,0.254724,0.389382,0.132533,0.0993851,inf,inf,inf,inf,1,1,1,1,2,0,2,1,4,1,1,0
63738130,33157931,34.0343664,108.755141,-15.8413,-0.221385,-2.44711,-0.633879,0.156789,0.0,-0.919515,-0.0917557,0.0137394,-0.0200658,-0.102455,0.0459952,0.0967945,0.0894521,-3.78399,0.7591,-3.05796,-0.126316,426.876,2.51533,0.262801,0.392808,0.13681,0.100584,inf,inf,inf,inf,1,1,1,1,2,0,2,1,4,1,1,0
63837641,33157931,34.0343664,108.755141,-15.9392,-0.233174,-2.45538,-0.633879,0.156789,0.0,-0.913254,-0.0795491,0.00434024,-0.0347624,-0.102455,0.0459952,0.0967945,1.29891,3.88624,-2.12793,-3.05862,-0.126316,426.876,2.52361,0.253836,0.390321,0.131805,0.0991946,inf,inf,inf,inf,1,1,1,1,2,0,2,1,4,1,1,0
63941769,33157931,34.0343664,108.755141,-16.041,-0.247519,-2.462,-0.633879,0.156789,0.0,-0.922037,-0.0908009,0.0096704,-0.0328344,-0.102455,0.0459952,0.0967945,0.876154,-2.60285,-1.34362,-3.05812,-0.126316,426.876,2.53023,0.262768,0.391926,0.136597,0.100285,inf,inf,inf,inf,1,1,1,1,2,0,2,1,4,1,1,0
64041051,33157931,34.0343664,108.755141,-16.1376,-0.259091,-2.46367,-0.633879,0.156789,0.0,-0.918396,-0.0904963,0.027112,-0.0138636,-0.102455,0.0459952,0.0967945,-1.8498,2.96563,1.50684,-3.05857,-0.126316,426.876,2.53189,0.253811,0.389448,0.131881,0.0989185,inf,inf,inf,inf,1,1,1,1,2,0,2,1,4,1,1,0
64140369,33157931,34.0343664,108.755141,-16.2338,-0.268792,-2.46139,-0.633879,0.156789,0.0,-0.918881,-0.0891842,0.0323042,-0.00437492,-0.102455,0.0459952,0.0967945,-0.26034,1.92823,-0.227511,-3.05829,-0.126316,426.876,2.52962,0.262742,0.391044,0.136584,0.0999999,inf,inf,inf,inf,1,1,1,1,2,0,2,1,4,1,1,0
64239688,33157931,34.0343664,108.755141,-16.3279,-0.278276,-2.4561,-0.633879,0.156789,0.0,-0.916611,-0.0931133,0.0374037,0.00678601,-0.102455,0.0459952,0.0967945,0.585042,0.841552,-0.620365,-3.05921,-0.126316,426.876,2.52432,0.253886,0.388603,0.131683,0.0986462,inf,inf,inf,inf,1,1,1,1,2,0,2,1,4,1,1,0
64349001,33157931,34.0343664,108.755141,-16.4294,-0.288343,-2.44836,-0.633879,0.156789,0.0,-0.91275,-0.0878195,0.0329829,0.00939403,-0.102455,0.0459952,0.0967945,1.5589,-0.513395,-1.56578,-3.05935,-0.126316,426.876,2.51659,0.263735,0.390832,0.136873,0.0998836,inf,inf,inf,inf,1,1,1,1,2,0,2,1,4,1,1,0
64438326,33157931,34.0343664,108.755141,-16.5137,-0.298572,-2.44611,-0.633879,0.156789,0.0,-0.914385,-0.0743409,0.0283429,0.00592796,-0.102455,0.0459952,0.0967945,1.0563,0.455349,-1.41192,-3.06073,-0.126316,426.876,2.51433,0.253849,0.390176,0.131481,0.0986342,inf,inf,inf,inf,1,1,1,1,2,0,2,1,4,1,1,0
64547578,33157931,34.0343664,108.755141,-16.6186,-0.312782,-2.44661,-0.633879,0.156789,0.0,-0.921281,-0.101416,0.0391627,0.0153611,-0.102455,0.0459952,0.0967945,-1.74001,-2.84574,3.30296,-3.06145,-0.126316,426.876,2.51484,0.263685,0.392418,0.136715,0.0998753,inf,inf,inf,inf,1,1,1,1,2,0,2,1,4,1,1,0
64646898,33157931,34.0343664,108.755141,-16.714,-0.326853,-2.44772,-0.633879,0.156789,0.0,-0.926654,-0.103174,0.023586,-0.00127213,-0.102455,0.0459952,0.0967945,-0.0490187,-3.82864,0.142455,-3.06183,-0.126316,426.876,2.51595,0.254639,0.389959,0.131804,0.098528,inf,inf,inf,inf,1,1,1,1,2,0,2,1,4,1,1,0
64746215,33157931,34.0343664,108.755141,-16.8094,-0.341297,-2.45043,-0.633879,0.156789,0.0,-0.921414,-0.0714298,0.00756668,-0.0190738,-0.102455,0.0459952,0.0967945,0.0472174,4.56329,-2.12842,-3.06393,-0.126316,426.876,2.51866,0.263594,0.391542,0.136501,0.0996004,inf,inf,inf,inf,1,1,1,1,2,0,2,1,4,1,1,0
64845534,33157931,34.0343664,108.755141,-16.906,-0.355496,-2.452,-0.633879,0.156789,0.0,-0.932671,-0.0851122,0.0172686,-0.00948544,-0.102455,0.0459952,0.0967945,-2.07446,2.86462,1.73986,-3.06383,-0.126316,426.876,2.52023,0.254527,0.389106,0.131706,0.0982709,inf,inf,inf,inf,1,1,1,1,2,0,2,1,4,1,1,0
64939886,33157931,34.0343664,108.755141,-16.9984,-0.368148,-2.45209,-0.633879,0.156789,0.0,-0.931863,-0.0807094,0.0181084,-0.00748901,-0.102455,0.0459952,0.0967945,-1.34701,4.3619,1.21147,-3.06387,-0.126316,426.876,2.52032,0.262555,0.390025,0.135935,0.0991771,inf,inf,inf,inf,1,1,1,1,2,0,2,1,4,1,1,0
65039210,33157931,34.0343664,108.755141,-17.0959,-0.379816,-2.45205,-0.633879,0.156789,0.0,-0.940965,-0.0799692,0.0208279,-0.00333671,-0.102455,0.0459952,0.0967945,-2.18476,1.57886,2.08897,-3.0637,-0.126316,426.876,2.52028,0.253529,0.390033,0.131033,0.0981126,inf,inf,inf,inf,1,1,1,1,2,0,2,1,4,1,1,0
65138524,33157931,34.0343664,108.755141,-17.1944,-0.389653,-2.45011,-0.633879,0.156789,0.0,-0.938219,-0.0751391,0.0126698,-0.00884829,-0.102455,0.0459952,0.0967945,0.707988,0.825387,-1.69783,-3.0644,-0.126316,426.876,2.51834,0.262411,0.391609,0.135943,0.0991912,inf,inf,inf,inf,1,1,1,1,2,0,2,1,4,1,1,0
65247843,33157931,34.0343664,108.755141,-17.3032,-0.398335,-2.44943,-0.633879,0.156789,0.0,-0.94415,-0.0756611,0.0219859,0.00109576,-0.102455,0.0459952,0.0967945,-0.405552,-1.60317,0.349123,-3.06459,-0.126316,426.876,2.51766,0.254233,0.389838,0.131532,0.0980348,inf,inf,inf,inf,1,1,1,1,2,0,2,1,4,1,1,0
65347095,33157931,34.0343664,108.755141,-17.4021,-0.404353,-2.45192,-0.633879,0.156789,0.0,-0.938304,-0.0682687,0.0144189,-0.00894869,-0.102455,0.0459952,0.0967945,2.17272,0.0551413,-2.76224,-3.06371,-0.126316,426.876,2.52015,0.263162,0.391409,0.136234,0.0990996,inf,inf,inf,inf,1,1,1,1,2,0,2,1,4,1,1,0
65446569,33157931,34.0343664,108.755141,-17.5013,-0.409962,-2.45509,-0.633879,0.156789,0.0,-0.950232,-0.0561403,0.0236588,-0.00225775,-0.102455,0.0459952,0.0967945,-0.0424004,1.39859,1.07286,-3.06399,-0.126316,426.876,2.52331,0.254057,0.389011,0.131334,0.0977946,inf,inf,inf,inf,1,1,1,1,2,0,2,1,4,1,1,0
65545731,33157931,34.0343664,108.755141,-17.5999,-0.415798,-2.45792,-0.633879,0.156789,0.0,-0.949261,-0.0643602,0.0185715,-0.00913731,-0.102455,0.0459952,0.0967945,-0.12984,-3.96971,1.68196,-3.06338,-0.126316,426.876,2.52615,0.262971,0.390565,0.136047,0.0988539,inf,inf,inf,inf,1,1,1,1,2,0,2,1,4,1,1,0
65645051,33157931,34.0343664,108.755141,-17.6971,-0.420299,-2.45949,-0.633879,0.156789,0.0,-0.944394,-0.0433477,0.00831939,-0.0192833,-0.102455,0.0459952,0.0967945,0.952301,2.21094,-2.09972,-3.06381,-0.126316,426.876,2.52771,0.253764,0.388182,0.131061,0.0975499,inf,inf,inf,inf,1,1,1,1,2,0,2,1,4,1,1,0
65739404,33157931,34.0343664,108.755141,-17.7881,-0.424205,-2.46003,-0.633879,0.156789,0.0,-0.937569,-0.0567313,0.00932282,-0.0175967,-0.102455,0.0459952,0.0967945,2.38768,-4.48558,-1.75744,-3.06337,-0.126316,426.876,2.52826,0.26174,0.391513,0.135297,0.098709,inf,inf,inf,inf,1,1,1,1,2,0,2,1,4,1,1,0
65838722,33157931,34.0343664,108.755141,-17.8838,-0.427816,-2.45913,-0.633879,0.156789,0.0,-0.950877,-0.0356041,0.018342,-0.00652322,-0.102455,0.0459952,0.0967945,0.198755,3.89064,-0.268508,-3.06415,-0.126316,426.876,2.52736,0.252604,0.389121,0.130427,0.0974091,inf,inf,inf,inf,1,1,1,1,2,0,2,1,4,1,1,0
65948025,33157931,34.0343664,108.755141,-17.989,-0.429906,-2.45996,-0.633879,0.156789,0.0,-0.948866,-0.0406706,0.0238658,-0.000931211,-0.102455,0.0459952,0.0967945,-1.64329,0.72208,2.0908,-3.06419,-0.126316,426.876,2.52819,0.262337,0.391312,0.135763,0.0986306,inf,inf,inf,inf,1,1,1,1,2,0,2,1,4,1,1,0
66042326,33157931,34.0343664,108.755141,-18.0808,-0.433998,-2.46004,-0.633879,0.156789,0.0,-0.950021,-0.0418774,0.0213646,-0.00290403,-0.102455,0.0459952,0.0967945,-0.275342,-0.361854,0.32318,-3.06448,-0.126316,426.876,2.52827,0.252436,0.38831,0.130447,0.097194,inf,inf,inf,inf,1,1,1,1,2,0,2,1,4,1,1,0
66141645,33157931,34.0343664,108.755141,-18.179,-0.440465,-2.45881,-0.633879,0.156789,0.0,-0.944903,-0.046053,0.0210015,-0.00152971,-0.102455,0.0459952,0.0967945,0.283388,0.855616,-0.379731,-3.06392,-0.126316,426.876,2.52703,0.26125,0.389842,0.13508,0.0982446,inf,inf,inf,inf,1,1,1,1,2,0,2,1,4,1,1,0
66241060,33157931,34.0343664,108.755141,-18.2766,-0.449047,-2.45628,-0.633879,0.156789,0.0,-0.953761,-0.0484713,0.0294391,0.0096215,-0.102455,0.0459952,0.0967945,-1.36381,0.432393,2.59413,-3.06423,-0.126316,426.876,2.52451,0.252342,0.387516,0.130584,0.0969963,inf,inf,inf,inf,1,1,1,1,2,0,2,1,4,1,1,0
66340283,33157931,34.0343664,108.755141,-18.3734,-0.459455,-2.45506,-0.633879,0.156789,0.0,-0.949025,-0.0488185,0.0139361,-0.00462535,-0.102455,0.0459952,0.0967945,0.0434918,-1.62197,-0.108887,-3.06376,-0.126316,426.876,2.52329,0.261168,0.389043,0.135254,0.0980441,inf,inf,inf,inf,1,1,1,1,2,0,2,1,4,1,1,0
66439602,33157931,34.0343664,108.755141,-18.4708,-0.46869,-2.45522,-0.633879,0.156789,0.0,-0.947923,-0.0466995,0.0045167,-0.0138011,-0.102455,0.0459952,0.0967945,0.917891,2.6937,-2.57569,-3.06398,-0.126316,426.876,2.52345,0.252143,0.38673,0.130409,0.0967865,inf,inf,inf,inf,1,1,1,1,2,0,2,1,4,1,1,0
66543887,33157931,34.0343664,108.755141,-18.574,-0.477209,-2.45442,-0.633879,0.156789,0.0,-0.945465,-0.0535801,0.000380943,-0.0165889,-0.102455,0.0459952,0.0967945,1.67111,2.61831,-3.05572,-3.06255,-0.126316,426.876,2.52265,0.260959,0.39066,0.135133,0.0980903,inf,inf,inf,inf,1,1,1,1,2,0,2,1,4,1,1,0
66643210,33157931,34.0343664,108.755141,-18.6712,-0.486603,-2.45479,-0.633879,0.156789,0.0,-0.949741,-0.0543336,0.00140679,-0.0147067,-0.102455,0.0459952,0.0967945,-0.613873,4.49248,0.347425,-3.06212,-0.126316,426.876,2.52302,0.251965,0.388322,0.13035,0.0968328,inf,inf,inf,inf,1,1,1,1,2,0,2,1,4,1,1,0
66742525,33157931,34.0343664,108.755141,-18.768,-0.496821,-2.45727,-0.633879,0.156789,0.0,-0.943075,-0.066556,-0.00347412,-0.0201541,-0.102455,0.0459952,0.0967945,2.02614,-3.29329,-0.724992,-3.06075,-0.126316,426.876,2.5255,0.260779,0.389855,0.135227,0.0978868,inf,inf,inf,inf,1,1,1,1,2,0,2,1,4,1,1,0
66841843,33157931,34.0343664,108.755141,-18.8647,-0.506897,-2.46027,-0.633879,0.156789,0.0,-0.950681,-0.0618206,0.00452666,-0.0135138,-0.102455,0.0459952,0.0967945,0.729794,-1.75445,0.389702,-3.06172,-0.126316,426.876,2.5285,0.251869,0.387549,0.130507,0.0966503,inf,inf,inf,inf,1,1,1,1,2,0,2,1,4,1,1,0
66941163,33157931,34.0343664,108.755141,-18.9609,-0.5165,-2.46254,-0.633879,0.156789,0.0,-0.94516,-0.0630545,0.0084919,-0.0107263,-0.102455,0.0459952,0.0967945,0.513869,-2.13386,-0.319892,-3.06215,-0.126316,426.876,2.53077,0.260692,0.389068,0.135157,0.0976922,inf,inf,inf,inf,1,1,1,1,2,0,2,1,4,1,1,0
67040596,33157931,34.0343664,108.755141,-19.0574,-0.526656,-2.46499,-0.633879,0.156789,0.0,-0.954061,-0.0409715,0.0144651,-0.00650097,-0.102455,0.0459952,0.0967945,-0.968876,3.46551,0.806726,-3.06429,-0.126316,426.876,2.53322,0.251701,0.386774,0.130287,0.0964515,inf,inf,inf,inf,1,1,1,1,2,0,2,1,4,1,1,0
67139803,33157931,34.0343664,108.755141,-19.1543,-0.537312,-2.46499,-0.633879,0.156789,0.0,-0.95684,-0.0748077,0.0258219,0.00530768,-0.102455,0.0459952,0.0967945,-1.398,-2.77891,2.30015,-3.06404,-0.126316,426.876,2.53321,0.260512,0.388278,0.134914,0.0974875,inf,inf,inf,inf,1,1,1,1,2,0,2,1,4,1,1,0
67239119,33157931,34.0343664,108.755141,-19.2515,-0.546467,-2.46164,-0.633879,0.156789,0.0,-0.951675,-0.0458043,0.0115284,-0.0053884,-0.102455,0.0459952,0.0967945,1.83913,0.498558,-3.09181,-3.06449,-0.126316,426.876,2.52987,0.251513,0.386001,0.130057,0.0962554,inf,inf,inf,inf,1,1,1,1,2,0,2,1,4,1,1,0
67348379,33157931,34.0343664,108.755141,-19.3592,-0.556229,-2.45694,-0.633879,0.156789,0.0,-0.965622,-0.0529397,0.0236112,0.0108849,-0.102455,0.0459952,0.0967945,-1.30185,2.46149,0.877716,-3.06491,-0.126316,426.876,2.52517,0.26122,0.388124,0.135166,0.0974413,inf,inf,inf,inf,1,1,1,1,2,0,2,1,4,1,1,0
67437757,33157931,34.0343664,108.755141,-19.4477,-0.564428,-2.45467,-0.633879,0.156789,0.0,-0.96002,-0.0540684,0.0209625,0.00954955,-0.102455,0.0459952,0.0967945,0.640815,-2.97388,0.159703,-3.0643,-0.126316,426.876,2.5229,0.251344,0.387594,0.129962,0.0963132,inf,inf,inf,inf,1,1,1,1,2,0,2,1,4,1,1,0
67547036,33157931,34.0343664,108.755141,-19.5562,-0.574975,-2.45221,-0.633879,0.156789,0.0,-0.96608,-0.0514594,0.0171813,0.00728609,-0.102455,0.0459952,0.0967945,0.555424,-1.02243,-0.722366,-3.06491,-0.126316,426.876,2.52043,0.261044,0.389732,0.134995,0.0974997,inf,inf,inf,inf,1,1,1,1,2,0,2,1,4,1,1,0
67641361,33157931,34.0343664,108.755141,-19.6508,-0.58402,-2.45021,-0.633879,0.156789,0.0,-0.966679,-0.0528495,0.0121559,0.00336229,-0.102455,0.0459952,0.0967945,1.05031,-0.374662,-1.78486,-3.06481,-0.126316,426.876,2.51844,0.251159,0.3868,0.129788,0.0961208,inf,inf,inf,inf,1,1,1,1,2,0,2,1,4,1,1,0
67740682,33157931,34.0343664,108.755141,-19.7515,-0.594324,-2.44883,-0.633879,0.156789,0.0,-0.974095,-0.0609507,0.0195044,0.0114379,-0.102455,0.0459952,0.0967945,-0.145359,-2.81167,1.38654,-3.06502,-0.126316,426.876,2.51705,0.259941,0.388273,0.1344,0.097146,inf,inf,inf,inf,1,1,1,1,2,0,2,1,4,1,1,0
67840023,33157931,34.0343664,108.755141,-19.8518,-0.602641,-2.4452,-0.633879,0.156789,0.0,-0.969858,-0.0486483,0.00961842,0.00469298,-0.102455,0.0459952,0.0967945,0.711208,-1.3734,-1.10111,-3.0644,-0.126316,426.876,2.51343,0.25099,0.388371,0.129878,0.0961827,inf,inf,inf,inf,1,1,1,1,2,0,2,1,4,1,1,0
67939371,33157931,34.0343664,108.755141,-19.952,-0.608964,-2.44151,-0.633879,0.156789,0.0,-0.979366,-0.0318316,0.00993081,0.00814747,-0.102455,0.0459952,0.0967945,-0.65487,5.10635,-0.829268,-3.06528,-0.126316,426.876,2.50974,0.259774,0.389867,0.134446,0.0972127,inf,inf,inf,inf,1,1,1,1,2,0,2,1,4,1,1,0
68038645,33157931,34.0343664,108.755141,-20.052,-0.61588,-2.43846,-0.633879,0.156789,0.0,-0.98266,-0.038685,0.00949092,0.0103219,-0.102455,0.0459952,0.0967945,-2.38625,1.5035,3.08674,-3.0651,-0.126316,426.876,2.50669,0.25091,0.387561,0.129843,0.0960034,inf,inf,inf,inf,1,1,1,1,2,0,2,1,4,1,1,0
68147892,33157931,34.0343664,108.755141,-20.1619,-0.623028,-2.43536,-0.633879,0.156789,0.0,-0.970995,-0.05577,-0.0110722,-0.00693763,-0.102455,0.0459952,0.0967945,2.10562,-4.26107,-2.26755,-3.06449,-0.126316,426.876,2.50359,0.260607,0.389653,0.134882,0.0971757,inf,inf,inf,inf,1,1,1,1,2,0,2,1,4,1,1,0
68247210,33157931,34.0343664,108.755141,-20.2618,-0.628002,-2.43416,-0.633879,0.156789,0.0,-0.972578,-0.0432709,-0.0109396,-0.00550612,-0.102455,0.0459952,0.0967945,0.930311,-1.62976,-0.711115,-3.06496,-0.126316,426.876,2.50238,0.251605,0.387343,0.130178,0.0959637,inf,inf,inf,inf,1,1,1,1,2,0,2,1,4,1,1,0
68346526,33157931,34.0343664,108.755141,-20.3611,-0.632837,-2.43339,-0.633879,0.156789,0.0,-0.980754,-0.0419816,-0.00657418,-0.000160015,-0.102455,0.0459952,0.0967945,-1.47146,-0.419392,1.6514,-3.06488,-0.126316,426.876,2.50162,0.260442,0.3888,0.134843,0.0969818,inf,inf,inf,inf,1,1,1,1,2,0,2,1,4,1,1,0
68440879,33157931,34.0343664,108.755141,-20.4558,-0.637153,-2.43088,-0.633879,0.156789,0.0,-0.978267,-0.0428913,-0.0104366,-0.00108448,-0.102455,0.0459952,0.0967945,0.298501,-2.20323,0.36023,-3.06507,-0.126316,426.876,2.49911,0.250613,0.388267,0.129626,0.0958715,inf,inf,inf,inf,1,1,1,1,2,0,2,1,4,1,1,0
68540202,33157931,34.0343664,108.755141,-20.5567,-0.641193,-2.42741,-0.633879,0.156789,0.0,-0.973155,-0.0450471,-0.0163606,-0.00341095,-0.102455,0.0459952,0.0967945,0.758984,-0.354399,-1.37404,-3.06455,-0.126316,426.876,2.49563,0.259389,0.389736,0.134213,0.0968933,inf,inf,inf,inf,1,1,1,1,2,0,2,1,4,1,1,0
68639520,33157931,34.0343664,108.755141,-20.6559,-0.645834,-2.42272,-0.633879,0.156789,0.0,-0.984297,-0.0483899,-0.00500008,0.0124119,-0.102455,0.0459952,0.0967945,-2.31235,0.678559,3.04936,-3.06508,-0.126316,426.876,2.49094,0.250485,0.387444,0.129696,0.0956954,inf,inf,inf,inf,1,1,1,1,2,0,2,1,4,1,1,0
68738838,33157931,34.0343664,108.755141,-20.7532,-0.651631,-2.41722,-0.633879,0.156789,0.0,-0.977223,-0.0398636,-0.0188732,0.00372326,-0.102455,0.0459952,0.0967945,-1.00453,-1.93181,2.04387,-3.06442,-0.126316,426.876,2.48545,0.259265,0.388907,0.134318,0.0967156,inf,inf,inf,inf,1,1,1,1,2,0,2,1,4,1,1,0
68848088,33157931,34.0343664,108.755141,-20.8622,-0.660069,-2.41424,-0.633879,0.156789,0.0,-0.970302,-0.0520293,-0.0412484,-0.015391,-0.102455,0.0459952,0.0967945,1.69583,-0.098675,-3.36248,-3.06443,-0.126316,426.876,2.48247,0.25124,0.387252,0.130009,0.0956717,inf,inf,inf,inf,1,1,1,1,2,0,2,1,4,1,1,0
68947582,33157931,34.0343664,108.755141,-20.9638,-0.66984,-2.41433,-0.633879,0.156789,0.0,-0.974072,-0.0456953,-0.0351101,-0.00888792,-0.102455,0.0459952,0.0967945,-0.349202,2.78071,0.704267,-3.06375,-0.126316,426.876,2.48256,0.260068,0.388706,0.134692,0.0966874,inf,inf,inf,inf,1,1,1,1,2,0,2,1,4,1,1,0
69041758,33157931,34.0343664,108.755141,-21.0601,-0.678911,-2.41407,-0.633879,0.156789,0.0,-0.975592,-0.0476021,-0.0427294,-0.0152971,-0.102455,0.0459952,0.0967945,0.634405,1.68671,-1.63646,-3.06434,-0.126316,426.876,2.4823,0.250296,0.385824,0.12957,0.0953505,inf,inf,inf,inf,1,1,1,1,2,0,2,1,4,1,1,0
69141079,33157931,34.0343664,108.755141,-21.1632,-0.68866,-2.4124,-0.633879,0.156789,0.0,-0.974061,-0.0559828,-0.0373667,-0.00751973,-0.102455,0.0459952,0.0967945,0.678177,0.900629,-0.0243315,-3.06351,-0.126316,426.876,2.48062,0.259069,0.389656,0.134369,0.0966183,inf,inf,inf,inf,1,1,1,1,2,0,2,1,4,1,1,0
69245362,33157931,34.0343664,108.755141,-21.2698,-0.698638,-2.41165,-0.633879,0.156789,0.0,-0.97992,-0.0572673,-0.0348495,-0.00364473,-0.102455,0.0459952,0.0967945,-0.583899,-0.285712,0.715691,-3.0636,-0.126316,426.876,2.47988,0.250219,0.387379,0.129598,0.0954289,inf,inf,inf,inf,1,1,1,1,2,0,2,1,4,1,1,0
69344690,33157931,34.0343664,108.755141,-21.3708,-0.709399,-2.41105,-0.633879,0.156789,0.0,-0.970935,-0.0613064,-0.0441911,-0.0120028,-0.102455,0.0459952,0.0967945,1.95938,0.974509,-2.91103,-3.0632,-0.126316,426.876,2.47928,0.258994,0.388817,0.134178,0.0964407,inf,inf,inf,inf,1,1,1,1,2,0,2,1,4,1,1,0
69444026,33157931,34.0343664,108.755141,-21.4696,-0.718223,-2.40966,-0.633879,0.156789,0.0,-0.970118,-0.0622168,-0.0339654,-0.000127432,-0.102455,0.0459952,0.0967945,0.104219,0.164539,0.945878,-3.06355,-0.126316,426.876,2.47788,0.25015,0.386553,0.129665,0.0952629,inf,inf,inf,inf,1,1,1,1,2,0,2,1,4,1,1,0
69543321,33157931,34.0343664,108.755141,-21.5666,-0.7265,-2.40945,-0.633879,0.156789,0.0,-0.970432,-0.0631806,-0.0432913,-0.00880142,-0.102455,0.0459952,0.0967945,0.0644595,-3.60739,1.01028,-3.06251,-0.126316,426.876,2.47767,0.258928,0.387987,0.134256,0.0962733,inf,inf,inf,inf,1,1,1,1,2,0,2,1,4,1,1,0
69642638,33157931,34.0343664,108.755141,-21.6644,-0.731255,-2.41297,-0.633879,0.156789,0.0,-0.960227,-0.0460904,-0.0586804,-0.0264683,-0.102455,0.0459952,0.0967945,1.47275,1.86239,-2.64145,-3.06354,-0.126316,426.876,2.4812,0.250157,0.385746,0.129577,0.0951077,inf,inf,inf,inf,1,1,1,1,2,0,2,1,4,1,1,0
69742072,33157931,34.0343664,108.755141,-21.7629,-0.734537,-2.41757,-0.633879,0.156789,0.0,-0.965008,-0.0586341,-0.0483819,-0.0190626,-0.102455,0.0459952,0.0967945,-1.27494,0.873301,1.2603,-3.06212,-0.126316,426.876,2.4858,0.258938,0.389568,0.134225,0.0963674,inf,inf,inf,inf,1,1,1,1,2,0,2,1,4,1,1,0
69841294,33157931,34.0343664,108.755141,-21.862,-0.736226,-2.4219,-0.633879,0.156789,0.0,-0.960918,-0.0644198,-0.0486824,-0.0215646,-0.102455,0.0459952,0.0967945,0.173027,-4.89718,0.744764,-3.06082,-0.126316,426.876,2.49013,0.250163,0.387311,0.129587,0.0952015,inf,inf,inf,inf,1,1,1,1,2,0,2,1,4,1,1,0
69940595,33157931,34.0343664,108.755141,-21.9619,-0.737195,-2.42621,-0.633879,0.156789,0.0,-0.967961,-0.050752,-0.0484945,-0.0232859,-0.102455,0.0459952,0.0967945,-0.284204,0.798046,0.262915,-3.06213,-0.126316,426.876,2.49444,0.258949,0.38875,0.134121,0.0962112,inf,inf,inf,inf,1,1,1,1,2,0,2,1,4,1,1,0
70039915,33157931,34.0343664,108.755141,-22.0628,-0.741335,-2.43034,-0.633879,0.156789,0.0,-0.969546,-0.0506288,-0.0415405,-0.018553,-0.102455,0.0459952,0.0967945,-0.664478,2.23489,0.377363,-3.06314,-0.126316,426.876,2.49857,0.250079,0.386492,0.129416,0.0950397,inf,inf,inf,inf,1,1,1,1,2,0,2,1,4,1,1,0
70139246,33157931,34.0343664,108.755141,-22.1654,-0.748459,-2.4328,-0.633879,0.156789,0.0,-0.970538,-0.0499766,-0.0393442,-0.0173481,-0.102455,0.0459952,0.0967945,1.13603,2.42089,-1.80166,-3.0647,-0.126316,426.876,2.50102,0.258854,0.387904,0.133925,0.0960416,inf,inf,inf,inf,1,1,1,1,2,0,2,1,4,1,1,0
70248485,33157931,34.0343664,108.755141,-22.2757,-0.758359,-2.4377,-0.633879,0.156789,0.0,-0.969009,-0.0695216,-0.0272778,-0.00905638,-0.102455,0.0459952,0.0967945,-0.459712,-2.0302,1.21377,-3.06578,-0.126316,426.876,2.50593,0.250948,0.386274,0.129742,0.0950343,inf,inf,inf,inf,1,1,1,1,2,0,2,1,4,1,1,0
70342836,33157931,34.0343664,108.755141,-22.3692,-0.76702,-2.44193,-0.633879,0.156789,0.0,-0.975887,-0.0587665,-0.021115,-0.0056668,-0.102455,0.0459952,0.0967945,-3.55613,2.27882,3.78353,-3.06663,-0.126316,426.876,2.51016,0.25887,0.38946,0.133836,0.0961348,inf,inf,inf,inf,1,1,1,1,2,0,2,1,4,1,1,0
70442155,33157931,34.0343664,108.755141,-22.4678,-0.775698,-2.44562,-0.633879,0.156789,0.0,-0.96328,-0.0738967,-0.0366948,-0.0229682,-0.102455,0.0459952,0.0967945,0.447775,-3.46073,0.0646098,-3.06638,-0.126316,426.876,2.51385,0.250015,0.387192,0.129111,0.0949665,inf,inf,inf,inf,1,1,1,1,2,0,2,1,4,1,1,0
70541547,33157931,34.0343664,108.755141,-22.567,-0.782911,-2.44888,-0.633879,0.156789,0.0,-0.95765,-0.0542285,-0.0435205,-0.0306443,-0.102455,0.0459952,0.0967945,1.60422,-0.0846954,-2.41732,-3.0675,-0.126316,426.876,2.51711,0.258785,0.388616,0.133843,0.0959753,inf,inf,inf,inf,1,1,1,1,2,0,2,1,4,1,1,0
70640836,33157931,34.0343664,108.755141,-22.666,-0.790724,-2.4518,-0.633879,0.156789,0.0,-0.957484,-0.066875,-0.0326941,-0.0207196,-0.102455,0.0459952,0.0967945,-0.644195,0.0642158,0.289567,-3.06731,-0.126316,426.876,2.52002,0.250035,0.386379,0.129296,0.0948271,inf,inf,inf,inf,1,1,1,1,2,0,2,1,4,1,1,0
70740112,33157931,34.0343664,108.755141,-22.7647,-0.799223,-2.45339,-0.633879,0.156789,0.0,-0.955086,-0.0635843,-0.0275926,-0.0154139,-0.102455,0.0459952,0.0967945,0.568872,0.906696,-0.668312,-3.06742,-0.126316,426.876,2.52162,0.258812,0.387793,0.13383,0.0958286,inf,inf,inf,inf,1,1,1,1,2,0,2,1,4,1,1,0
70839432,33157931,34.0343664,108.755141,-22.8615,-0.807594,-2.4546,-0.633879,0.156789,0.0,-0.956374,-0.0724059,-0.0150883,-0.00285157,-0.102455,0.0459952,0.0967945,-0.946407,-1.22207,2.27738,-3.06761,-0.126316,426.876,2.52283,0.250003,0.38557,0.129108,0.0946757,inf,inf,inf,inf,1,1,1,1,2,0,2,1,4,1,1,0
70948694,33157931,34.0343664,108.755141,-22.9657,-0.817388,-2.45703,-0.633879,0.156789,0.0,-0.946391,-0.059387,-0.0303908,-0.0192998,-0.102455,0.0459952,0.0967945,1.39302,1.57932,-2.47182,-3.0677,-0.126316,426.876,2.52525,0.259676,0.387586,0.134082,0.0958216,inf,inf,inf,inf,1,1,1,1,2,0,2,1,4,1,1,0
71048001,33157931,34.0343664,108.755141,-23.061,-0.823666,-2.46176,-0.633879,0.156789,0.0,-0.953886,-0.0519823,-0.0217997,-0.0140253,-0.102455,0.0459952,0.0967945,-1.37769,6.34797,0.652248,-3.06866,-0.126316,426.876,2.52999,0.250859,0.38537,0.129399,0.0946758,inf,inf,inf,inf,1,1,1,1,2,0,2,1,4,1,1,0
71147320,33157931,34.0343664,108.755141,-23.1571,-0.829406,-2.46729,-0.633879,0.156789,0.0,-0.954496,-0.0644958,-0.0197839,-0.0157347,-0.102455,0.0459952,0.0967945,-0.462897,-1.45139,1.58468,-3.06815,-0.126316,426.876,2.53552,0.259672,0.389156,0.134007,0.0959199,inf,inf,inf,inf,1,1,1,1,2,0,2,1,4,1,1,0
71246639,33157931,34.0343664,108.755141,-23.2553,-0.83381,-2.46928,-0.633879,0.156789,0.0,-0.94988,-0.0698555,-0.02435,-0.0203485,-0.102455,0.0459952,0.0967945,2.27551,-2.10926,-2.21321,-3.06852,-0.126316,426.876,2.53751,0.250932,0.386917,0.129325,0.0947713,inf,inf,inf,inf,1,1,1,1,2,0,2,1,4,1,1,0
71346028,33157931,34.0343664,108.755141,-23.3552,-0.836751,-2.4688,-0.633879,0.156789,0.0,-0.956152,-0.063648,-0.0124628,-0.00690946,-0.102455,0.0459952,0.0967945,0.628447,0.52926,-0.397862,-3.06866,-0.126316,426.876,2.53703,0.25974,0.38832,0.13388,0.0957683,inf,inf,inf,inf,1,1,1,1,2,0,2,1,4,1,1,0
71440312,33157931,34.0343664,108.755141,-23.45,-0.839008,-2.46742,-0.633879,0.156789,0.0,-0.962987,-0.0628853,-0.00200907,0.00521725,-0.102455,0.0459952,0.0967945,-0.918471,0.706989,0.967111,-3.06922,-0.126316,426.876,2.53565,0.250177,0.385476,0.128811,0.0944746,inf,inf,inf,inf,1,1,1,1,2,0,2,1,4,1,1,0
71539630,33157931,34.0343664,108.755141,-23.5506,-0.840011,-2.4643,-0.633879,0.156789,0.0,-0.960924,-0.0617645,-0.0046006,0.00544007,-0.102455,0.0459952,0.0967945,0.312337,0.5903,-1.06901,-3.06891,-0.126316,426.876,2.53253,0.258927,0.389244,0.1333,0.0957145,inf,inf,inf,inf,1,1,1,1,2,0,2,1,4,1,1,0
71648944,33157931,34.0343664,108.755141,-23.6602,-0.844405,-2.45988,-0.633879,0.156789,0.0,-0.96391,-0.0463719,-0.00635177,0.00698889,-0.102455,0.0459952,0.0967945,0.828839,3.41124,-2.33726,-3.06954,-0.126316,426.876,2.52811,0.251144,0.385262,0.129304,0.0944806,inf,inf,inf,inf,1,1,1,1,2,0,2,1,4,1,1,0
71738269,33157931,34.0343664,108.755141,-23.749,-0.851194,-2.45665,-0.633879,0.156789,0.0,-0.963918,-0.0693347,0.00207719,0.0176891,-0.102455,0.0459952,0.0967945,-1.11461,-0.237222,2.70353,-3.06892,-0.126316,426.876,2.52487,0.259046,0.388413,0.133414,0.0955718,inf,inf,inf,inf,1,1,1,1,2,0,2,1,4,1,1,0
71847521,33157931,34.0343664,108.755141,-23.8571,-0.857501,-2.45402,-0.633879,0.156789,0.0,-0.954503,-0.0685447,-0.0168263,0.000804193,-0.102455,0.0459952,0.0967945,2.36796,-5.55922,-0.650941,-3.06811,-0.126316,426.876,2.52225,0.251282,0.386803,0.129251,0.0945815,inf,inf,inf,inf,1,1,1,1,2,0,2,1,4,1,1,0
71946839,33157931,34.0343664,108.755141,-23.9554,-0.863716,-2.45132,-0.633879,0.156789,0.0,-0.966199,-0.0670771,-0.0208121,-0.000577783,-0.102455,0.0459952,0.0967945,0.898688,-1.16419,-0.867085,-3.06861,-0.126316,426.876,2.51955,0.260087,0.388209,0.133803,0.0955787,inf,inf,inf,inf,1,1,1,1,2,0,2,1,4,1,1,0
72046157,33157931,34.0343664,108.755141,-24.0537,-0.872146,-2.44806,-0.633879,0.156789,0.0,-0.961322,-0.0633505,-0.0179341,0.00521911,-0.102455,0.0459952,0.0967945,-1.34501,2.65088,1.35851,-3.06901,-0.126316,426.876,2.51629,0.251398,0.385997,0.129289,0.0944479,inf,inf,inf,inf,1,1,1,1,2,0,2,1,4,1,1,0
72145570,33157931,34.0343664,108.755141,-24.1525,-0.883099,-2.44434,-0.633879,0.156789,0.0,-0.962134,-0.0690917,-0.0218598,0.00444776,-0.102455,0.0459952,0.0967945,-0.195005,1.43644,-0.217443,-3.06839,-0.126316,426.876,2.51257,0.260203,0.387386,0.133827,0.0954392,inf,inf,inf,inf,1,1,1,1,2,0,2,1,4,1,1,0
72239829,33157931,34.0343664,108.755141,-24.2446,-0.893988,-2.44191,-0.633879,0.156789,0.0,-0.963038,-0.0858926,-0.0216452,0.00654087,-0.102455,0.0459952,0.0967945,-0.334094,-2.56871,1.14957,-3.06878,-0.126316,426.876,2.51014,0.250647,0.386929,0.128761,0.0944024,inf,inf,inf,inf,1,1,1,1,2,0,2,1,4,1,1,0
72349099,33157931,34.0343664,108.755141,-24.3496,-0.907682,-2.44167,-0.633879,0.156789,0.0,-0.955441,-0.0768033,-0.0378687,-0.00974342,-0.102455,0.0459952,0.0967945,1.76359,3.33141,-2.76,-3.06909,-0.126316,426.876,2.5099,0.260299,0.388951,0.133795,0.0955488,inf,inf,inf,inf,1,1,1,1,2,0,2,1,4,1,1,0
72438659,33157931,34.0343664,108.755141,-24.4377,-0.917226,-2.44065,-0.633879,0.156789,0.0,-0.966129,-0.0666014,-0.0331136,-0.00380057,-0.102455,0.0459952,0.0967945,-1.92792,5.53359,1.36602,-3.07038,-0.126316,426.876,2.50888,0.250764,0.386126,0.128928,0.0942746,inf,inf,inf,inf,1,1,1,1,2,0,2,1,4,1,1,0
72542765,33157931,34.0343664,108.755141,-24.542,-0.925693,-2.4402,-0.633879,0.156789,0.0,-0.96305,-0.0695988,-0.0447463,-0.0143267,-0.102455,0.0459952,0.0967945,1.48936,-1.04344,-2.19815,-3.07009,-0.126316,426.876,2.50843,0.259518,0.387527,0.133508,0.0952718,inf,inf,inf,inf,1,1,1,1,2,0,2,1,4,1,1,0
72642071,33157931,34.0343664,108.755141,-24.6423,-0.933026,-2.43952,-0.633879,0.156789,0.0,-0.969074,-0.0773422,-0.0354805,-0.00392756,-0.102455,0.0459952,0.0967945,-1.20245,-0.51511,1.25794,-3.06946,-0.126316,426.876,2.50775,0.250909,0.385346,0.129127,0.0941537,inf,inf,inf,inf,1,1,1,1,2,0,2,1,4,1,1,0
72741390,33157931,34.0343664,108.755141,-24.7431,-0.940404,-2.43832,-0.633879,0.156789,0.0,-0.966037,-0.0731103,-0.0412593,-0.00810139,-0.102455,0.0459952,0.0967945,0.501014,1.86154,-1.38516,-3.0682,-0.126316,426.876,2.50655,0.259672,0.386746,0.133655,0.0951488,inf,inf,inf,inf,1,1,1,1,2,0,2,1,4,1,1,0
72840709,33157931,34.0343664,108.755141,-24.8431,-0.948116,-2.43569,-0.633879,0.156789,0.0,-0.973137,-0.0518698,-0.032414,0.00360476,-0.102455,0.0459952,0.0967945,-1.79183,4.91292,2.00146,-3.06805,-0.126316,426.876,2.50392,0.251074,0.384587,0.12902,0.094034,inf,inf,inf,inf,1,1,1,1,2,0,2,1,4,1,1,0
72940078,33157931,34.0343664,108.755141,-24.9421,-0.955759,-2.43346,-0.633879,0.156789,0.0,-0.972239,-0.0744489,-0.039861,-0.00167417,-0.102455,0.0459952,0.0967945,-1.02681,-2.00587,1.7538,-3.06601,-0.126316,426.876,2.50168,0.259833,0.38597,0.133588,0.0950252,inf,inf,inf,inf,1,1,1,1,2,0,2,1,4,1,1,0
73044316,33157931,34.0343664,108.755141,-25.0463,-0.966746,-2.43346,-0.633879,0.156789,0.0,-0.974695,-0.061679,-0.0478827,-0.00897455,-0.102455,0.0459952,0.0967945,-2.55247,4.10142,2.05493,-3.065,-0.126316,426.876,2.50169,0.251304,0.38616,0.129026,0.0941591,inf,inf,inf,inf,1,1,1,1,2,0,2,1,4,1,1,0
73143632,33157931,34.0343664,108.755141,-25.1457,-0.979666,-2.43522,-0.633879,0.156789,0.0,-0.969483,-0.0708922,-0.05404,-0.0159267,-0.102455,0.0459952,0.0967945,-0.693543,1.71148,0.488116,-3.06373,-0.126316,426.876,2.50345,0.260068,0.387567,0.13362,0.095157,inf,inf,inf,inf,1,1,1,1,2,0,2,1,4,1,1,0
73243064,33157931,34.0343664,108.755141,-25.2459,-0.992232,-2.43804,-0.633879,0.156789,0.0,-0.969596,-0.0737607,-0.0563669,-0.0197609,-0.102455,0.0459952,0.0967945,0.302066,0.823571,0.0528075,-3.06431,-0.126316,426.876,2.50627,0.251499,0.385404,0.129259,0.094054,inf,inf,inf,inf,1,1,1,1,2,0,2,1,4,1,1,0
73342270,33157931,34.0343664,108.755141,-25.3459,-1.00469,-2.44272,-0.633879,0.156789,0.0,-0.967221,-0.0725135,-0.0573802,-0.0242015,-0.102455,0.0459952,0.0967945,0.421005,-1.68549,-0.202164,-3.06416,-0.126316,426.876,2.51095,0.260278,0.38681,0.133843,0.0950501,inf,inf,inf,inf,1,1,1,1,2,0,2,1,4,1,1,0
73441589,33157931,34.0343664,108.755141,-25.4459,-1.01329,-2.44871,-0.633879,0.156789,0.0,-0.968093,-0.0609817,-0.0587783,-0.0300137,-0.102455,0.0459952,0.0967945,1.47835,2.27995,-2.23273,-3.06462,-0.126316,426.876,2.51694,0.251623,0.384664,0.129159,0.0939417,inf,inf,inf,inf,1,1,1,1,2,0,2,1,4,1,1,0
73540912,33157931,34.0343664,108.755141,-25.5456,-1.01888,-2.45523,-0.633879,0.156789,0.0,-0.971516,-0.0726729,-0.0459197,-0.0218394,-0.102455,0.0459952,0.0967945,-0.805152,-1.93165,1.32254,-3.06462,-0.126316,426.876,2.52346,0.260394,0.386054,0.133727,0.0949328,inf,inf,inf,inf,1,1,1,1,2,0,2,1,4,1,1,0
73640228,33157931,34.0343664,108.755141,-25.6453,-1.02465,-2.46106,-0.633879,0.156789,0.0,-0.971218,-0.0597221,-0.0444231,-0.0238954,-0.102455,0.0459952,0.0967945,0.126794,-1.421,0.0345838,-3.06453,-0.126316,426.876,2.52928,0.251724,0.383922,0.129046,0.0938285,inf,inf,inf,inf,1,1,1,1,2,0,2,1,4,1,1,0
73749515,33157931,34.0343664,108.755141,-25.7552,-1.0322,-2.46657,-0.633879,0.156789,0.0,-0.971666,-0.06754,-0.0304325,-0.0132385,-0.102455,0.0459952,0.0967945,-1.3564,-3.13046,2.79719,-3.06469,-0.126316,426.876,2.53479,0.261391,0.385922,0.134011,0.0949652,inf,inf,inf,inf,1,1,1,1,2,0,2,1,4,1,1,0
73838865,33157931,34.0343664,108.755141,-25.8447,-1.03937,-2.47225,-0.633879,0.156789,0.0,-0.969311,-0.0505318,-0.0404094,-0.0270538,-0.102455,0.0459952,0.0967945,-0.115501,2.00391,-1.67123,-3.06474,-0.126316,426.876,2.54048,0.251842,0.385517,0.128921,0.0939536,inf,inf,inf,inf,1,1,1,1,2,0,2,1,4,1,1,0
73948112,33157931,34.0343664,108.755141,-25.9543,-1.05002,-2.47934,-0.633879,0.156789,0.0,-0.972417,-0.051632,-0.0274488,-0.0186517,-0.102455,0.0459952,0.0967945,-3.0937,4.01772,3.10147,-3.06598,-0.126316,426.876,2.54756,0.261499,0.387535,0.133874,0.0950939,inf,inf,inf,inf,1,1,1,1,2,0,2,1,4,1,1,0
74037559,33157931,34.0343664,108.755141,-26.0419,-1.06085,-2.48295,-0.633879,0.156789,0.0,-0.960394,-0.0543814,-0.0293842,-0.0220562,-0.102455,0.0459952,0.0967945,-1.03732,-0.436489,1.01784,-3.06514,-0.126316,426.876,2.55118,0.251972,0.384778,0.128828,0.0938432,inf,inf,inf,inf,1,1,1,1,2,0,2,1,4,1,1,0
74146754,33157931,34.0343664,108.755141,-26.147,-1.07588,-2.48663,-0.633879,0.156789,0.0,-0.961691,-0.0665561,-0.0206962,-0.0148665,-0.102455,0.0459952,0.0967945,0.566876,-0.383565,-0.186838,-3.06535,-0.126316,426.876,2.55485,0.261622,0.386786,0.133739,0.0949802,inf,inf,inf,inf,1,1,1,1,2,0,2,1,4,1,1,0
74246075,33157931,34.0343664,108.755141,-26.2434,-1.08977,-2.49067,-0.633879,0.156789,0.0,-0.950991,-0.0622927,-0.0209485,-0.0179559,-0.102455,0.0459952,0.0967945,1.22369,-0.209416,-1.97841,-3.06491,-0.126316,426.876,2.5589,0.252874,0.384641,0.12909,0.093872,inf,inf,inf,inf,1,1,1,1,2,0,2,1,4,1,1,0
74335656,33157931,34.0343664,108.755141,-26.3311,-1.10306,-2.49472,-0.633879,0.156789,0.0,-0.958238,-0.0549487,-0.0130181,-0.0130436,-0.102455,0.0459952,0.0967945,0.874042,4.20754,-1.47977,-3.06589,-0.126316,426.876,2.56295,0.260754,0.385416,0.1331,0.094711,inf,inf,inf,inf,1,1,1,1,2,0,2,1,4,1,1,0
74439763,33157931,34.0343664,108.755141,-26.4338,-1.11548,-2.50071,-0.633879,0.156789,0.0,-0.959063,-0.0496325,-0.00632144,-0.0112399,-0.102455,0.0459952,0.0967945,0.520744,3.38481,-0.599517,-3.06593,-0.126316,426.876,2.56894,0.252188,0.385629,0.128577,0.093852,inf,inf,inf,inf,1,1,1,1,2,0,2,1,4,1,1,0
74539069,33157931,34.0343664,108.755141,-26.5326,-1.12479,-2.50667,-0.633879,0.156789,0.0,-0.964345,-0.0514001,0.00340603,-0.00624003,-0.102455,0.0459952,0.0967945,-0.554967,0.9008,0.429249,-3.06545,-0.126316,426.876,2.5749,0.260914,0.38703,0.13325,0.0948453,inf,inf,inf,inf,1,1,1,1,2,0,2,1,4,1,1,0
74648315,33157931,34.0343664,108.755141,-26.6409,-1.13764,-2.51135,-0.633879,0.156789,0.0,-0.963036,-0.0526537,0.00866287,-0.00445266,-0.102455,0.0459952,0.0967945,0.0160211,1.32766,0.0395438,-3.06562,-0.126316,426.876,2.57958,0.25321,0.385501,0.129101,0.0938941,inf,inf,inf,inf,1,1,1,1,2,0,2,1,4,1,1,0
74737702,33157931,34.0343664,108.755141,-26.7292,-1.14985,-2.5145,-0.633879,0.156789,0.0,-0.965923,-0.0706894,0.0120944,-0.00330384,-0.102455,0.0459952,0.0967945,0.384355,-6.047,1.10798,-3.06473,-0.126316,426.876,2.58272,0.261088,0.386297,0.133143,0.0947385,inf,inf,inf,inf,1,1,1,1,2,0,2,1,4,1,1,0
74847020,33157931,34.0343664,108.755141,-26.8381,-1.16514,-2.51832,-0.633879,0.156789,0.0,-0.96519,-0.0506556,0.00671429,-0.0112647,-0.102455,0.0459952,0.0967945,1.42475,-1.36278,-1.42811,-3.06508,-0.126316,426.876,2.58655,0.253431,0.38478,0.129019,0.0937916,inf,inf,inf,inf,1,1,1,1,2,0,2,1,4,1,1,0
74946275,33157931,34.0343664,108.755141,-26.9375,-1.17958,-2.52087,-0.633879,0.156789,0.0,-0.972872,-0.0524182,0.0186117,-0.000877334,-0.102455,0.0459952,0.0967945,-0.868241,-1.47938,1.07095,-3.06498,-0.126316,426.876,2.5891,0.262207,0.386165,0.133564,0.0947765,inf,inf,inf,inf,1,1,1,1,2,0,2,1,4,1,1,0
75045592,33157931,34.0343664,108.755141,-27.0364,-1.1949,-2.52341,-0.633879,0.156789,0.0,-0.972698,-0.0403699,0.0167356,-0.00440333,-0.102455,0.0459952,0.0967945,-0.34878,2.99564,-0.424836,-3.06602,-0.126316,426.876,2.59164,0.253615,0.384034,0.129007,0.0936838,inf,inf,inf,inf,1,1,1,1,2,0,2,1,4,1,1,0
75135183,33157931,34.0343664,108.755141,-27.1251,-1.20883,-2.52515,-0.633879,0.156789,0.0,-0.975831,-0.0472743,0.0282542,0.00608493,-0.102455,0.0459952,0.0967945,-2.67431,0.825261,2.89393,-3.06568,-0.126316,426.876,2.59337,0.261487,0.387155,0.133026,0.0947611,inf,inf,inf,inf,1,1,1,1,2,0,2,1,4,1,1,0
75239265,33157931,34.0343664,108.755141,-27.2288,-1.22211,-2.52725,-0.633879,0.156789,0.0,-0.972088,-0.0584297,0.0194517,-0.00380703,-0.102455,0.0459952,0.0967945,-0.638052,-0.80025,1.12525,-3.06509,-0.126316,426.876,2.59548,0.25296,0.385011,0.128483,0.0936646,inf,inf,inf,inf,1,1,1,1,2,0,2,1,4,1,1,0
75348515,33157931,34.0343664,108.755141,-27.3388,-1.23374,-2.53048,-0.633879,0.156789,0.0,-0.967231,-0.0360835,0.0170104,-0.00791435,-0.102455,0.0459952,0.0967945,-0.27373,0.623882,0.0331142,-3.06532,-0.126316,426.876,2.5987,0.262579,0.386999,0.133677,0.0947969,inf,inf,inf,inf,1,1,1,1,2,0,2,1,4,1,1,0
75437902,33157931,34.0343664,108.755141,-27.4273,-1.23804,-2.52929,-0.633879,0.156789,0.0,-0.971567,-0.0484806,0.0321762,0.00947182,-0.102455,0.0459952,0.0967945,-2.13244,-1.47424,3.70828,-3.06526,-0.126316,426.876,2.59752,0.253121,0.384264,0.128676,0.0935607,inf,inf,inf,inf,1,1,1,1,2,0,2,1,4,1,1,0
75547154,33157931,34.0343664,108.755141,-27.5339,-1.23748,-2.52433,-0.633879,0.156789,0.0,-0.964845,-0.0177115,0.0169391,-0.000438695,-0.102455,0.0459952,0.0967945,1.05115,0.282374,-2.43311,-3.06581,-0.126316,426.876,2.59256,0.262745,0.38625,0.133625,0.0946903,inf,inf,inf,inf,1,1,1,1,2,0,2,1,4,1,1,0
75646502,33157931,34.0343664,108.755141,-27.6316,-1.23661,-2.51928,-0.633879,0.156789,0.0,-0.961147,-0.0232039,0.0282737,0.0153953,-0.102455,0.0459952,0.0967945,-0.548103,0.988364,0.499711,-3.0663,-0.126316,426.876,2.58751,0.254114,0.38413,0.129068,0.0936043,inf,inf,inf,inf,1,1,1,1,2,0,2,1,4,1,1,0
75740825,33157931,34.0343664,108.755141,-27.7247,-1.23626,-2.51447,-0.633879,0.156789,0.0,-0.967546,-0.00779603,0.0301106,0.0208518,-0.102455,0.0459952,0.0967945,-0.729193,0.603577,1.57488,-3.06652,-0.126316,426.876,2.5827,0.261984,0.387252,0.133164,0.0946814,inf,inf,inf,inf,1,1,1,1,2,0,2,1,4,1,1,0
75840144,33157931,34.0343664,108.755141,-27.8209,-1.2343,-2.50928,-0.633879,0.156789,0.0,-0.960149,-0.0125303,0.0155272,0.0103146,-0.102455,0.0459952,0.0967945,0.958552,-1.77353,-0.938863,-3.0664,-0.126316,426.876,2.57751,0.253512,0.385123,0.12871,0.0936,inf,inf,inf,inf,1,1,1,1,2,0,2,1,4,1,1,0
75939605,33157931,34.0343664,108.755141,-27.9163,-1.23181,-2.50467,-0.633879,0.156789,0.0,-0.962455,0.0126593,0.00901145,0.00715969,-0.102455,0.0459952,0.0967945,1.72321,2.96072,-2.60459,-3.06761,-0.126316,426.876,2.5729,0.262243,0.38652,0.133397,0.0945899,inf,inf,inf,inf,1,1,1,1,2,0,2,1,4,1,1,0
76048714,33157931,34.0343664,108.755141,-28.0216,-1.22711,-2.50012,-0.633879,0.156789,0.0,-0.959287,-0.00334267,0.00792578,0.0091647,-0.102455,0.0459952,0.0967945,0.986471,-0.425642,-0.328418,-3.06595,-0.126316,426.876,2.56835,0.254486,0.385008,0.129355,0.0936508,inf,inf,inf,inf,1,1,1,1,2,0,2,1,4,1,1,0
76138101,33157931,34.0343664,108.755141,-28.1083,-1.22168,-2.49687,-0.633879,0.156789,0.0,-0.9602,0.00419474,-0.000322404,0.00331471,-0.102455,0.0459952,0.0967945,0.524667,1.72682,-1.30393,-3.06538,-0.126316,426.876,2.5651,0.262368,0.385787,0.133424,0.0944894,inf,inf,inf,inf,1,1,1,1,2,0,2,1,4,1,1,0
76242386,33157931,34.0343664,108.755141,-28.211,-1.21787,-2.49404,-0.633879,0.156789,0.0,-0.956071,-0.0112448,-0.0120714,-0.00607197,-0.102455,0.0459952,0.0967945,2.49161,-0.424469,-3.78448,-3.06504,-0.126316,426.876,2.56227,0.253745,0.383687,0.128878,0.0934079,inf,inf,inf,inf,1,1,1,1,2,0,2,1,4,1,1,0
76341705,33157931,34.0343664,108.755141,-28.3111,-1.21592,-2.49263,-0.633879,0.156789,0.0,-0.967196,-0.0162593,-0.00593387,0.00144728,-0.102455,0.0459952,0.0967945,-0.745899,0.0123714,0.66266,-3.06404,-0.126316,426.876,2.56086,0.262472,0.38506,0.133411,0.0943895,inf,inf,inf,inf,1,1,1,1,2,0,2,1,4,1,1,0
76441024,33157931,34.0343664,108.755141,-28.4121,-1.21671,-2.49298,-0.633879,0.156789,0.0,-0.9667,-0.0212202,-0.0110451,-0.00394989,-0.102455,0.0459952,0.0967945,-0.0610279,3.174,-1.4346,-3.06306,-0.126316,426.876,2.5612,0.253863,0.382972,0.129067,0.0933131,inf,inf,inf,inf,1,1,1,1,2,0,2,1,4,1,1,0
76540410,33157931,34.0343664,108.755141,-28.5153,-1.22079,-2.49537,-0.633879,0.156789,0.0,-0.975982,-0.0314609,-0.00383047,0.00115686,-0.102455,0.0459952,0.0967945,-1.99024,3.78472,2.12394,-3.06308,-0.126316,426.876,2.5636,0.262594,0.386689,0.133554,0.0945337,inf,inf,inf,inf,1,1,1,1,2,0,2,1,4,1,1,0
76639662,33157931,34.0343664,108.755141,-28.6189,-1.22508,-2.49921,-0.633879,0.156789,0.0,-0.973623,-0.0628651,-0.0183707,-0.0164691,-0.102455,0.0459952,0.0967945,2.23596,-3.58357,-2.04254,-3.06199,-0.126316,426.876,2.56744,0.253975,0.384583,0.129001,0.0934526,inf,inf,inf,inf,1,1,1,1,2,0,2,1,4,1,1,0
76749062,33157931,34.0343664,108.755141,-28.7344,-1.22939,-2.50338,-0.633879,0.156789,0.0,-0.979975,-0.0669348,-0.00821643,-0.00897244,-0.102455,0.0459952,0.0967945,0.0407862,-2.69198,1.31659,-3.06149,-0.126316,426.876,2.57161,0.263601,0.386581,0.133939,0.0945829,inf,inf,inf,inf,1,1,1,1,2,0,2,1,4,1,1,0
76838300,33157931,34.0343664,108.755141,-28.8287,-1.2335,-2.50609,-0.633879,0.156789,0.0,-0.980109,-0.0652698,-0.0183036,-0.020483,-0.102455,0.0459952,0.0967945,1.52644,0.0606535,-2.19819,-3.06078,-0.126316,426.876,2.57432,0.254065,0.383877,0.128965,0.09336,inf,inf,inf,inf,1,1,1,1,2,0,2,1,4,1,1,0
76947552,33157931,34.0343664,108.755141,-28.9445,-1.23924,-2.50925,-0.633879,0.156789,0.0,-0.986755,-0.0597502,-0.0071861,-0.0109368,-0.102455,0.0459952,0.0967945,-1.466,4.5121,1.58175,-3.06119,-0.126316,426.876,2.57748,0.263687,0.385872,0.133884,0.0944893,inf,inf,inf,inf,1,1,1,1,2,0,2,1,4,1,1,0
77041904,33157931,34.0343664,108.755141,-29.0439,-1.24635,-2.51212,-0.633879,0.156789,0.0,-0.992651,-0.0802875,-0.00288514,-0.00812302,-0.102455,0.0459952,0.0967945,-1.48341,-1.60897,1.85399,-3.06138,-0.126316,426.876,2.58035,0.254141,0.383181,0.12888,0.0932694,inf,inf,inf,inf,1,1,1,1,2,0,2,1,4,1,1,0
77141224,33157931,34.0343664,108.755141,-29.149,-1.25495,-2.51572,-0.633879,0.156789,0.0,-0.981844,-0.0690904,-0.0107973,-0.0181161,-0.102455,0.0459952,0.0967945,0.0513653,2.24882,-1.68302,-3.06134,-0.126316,426.876,2.58395,0.262854,0.384551,0.133343,0.0942487,inf,inf,inf,inf,1,1,1,1,2,0,2,1,4,1,1,0
77240596,33157931,34.0343664,108.755141,-29.2524,-1.26588,-2.52031,-0.633879,0.156789,0.0,-0.98261,-0.0757317,0.00158891,-0.00911721,-0.102455,0.0459952,0.0967945,-2.04447,4.27724,1.51892,-3.06293,-0.126316,426.876,2.58854,0.254195,0.382488,0.128946,0.0931807,inf,inf,inf,inf,1,1,1,1,2,0,2,1,4,1,1,0
77339862,33157931,34.0343664,108.755141,-29.3541,-1.27909,-2.5264,-0.633879,0.156789,0.0,-0.969361,-0.0873759,-0.00244579,-0.0179253,-0.102455,0.0459952,0.0967945,0.770324,-0.838667,-1.43573,-3.06279,-0.126316,426.876,2.59463,0.26291,0.386193,0.133472,0.0943983,inf,inf,inf,inf,1,1,1,1,2,0,2,1,4,1,1,0
77449112,33157931,34.0343664,108.755141,-29.4654,-1.29406,-2.53101,-0.633879,0.156789,0.0,-0.970734,-0.101609,0.0156957,-0.00317321,-0.102455,0.0459952,0.0967945,-0.553531,-4.01467,2.10136,-3.06387,-0.126316,426.876,2.59924,0.255097,0.384711,0.129313,0.0934706,inf,inf,inf,inf,1,1,1,1,2,0,2,1,4,1,1,0
77538623,33157931,34.0343664,108.755141,-29.5562,-1.30676,-2.53516,-0.633879,0.156789,0.0,-0.958442,-0.0957595,0.0056726,-0.0164047,-0.102455,0.0459952,0.0967945,1.75185,-1.8355,-2.26931,-3.06415,-0.126316,426.876,2.60339,0.262957,0.385503,0.133358,0.09431,inf,inf,inf,inf,1,1,1,1,2,0,2,1,4,1,1,0
77647752,33157931,34.0343664,108.755141,-29.6671,-1.32094,-2.54005,-0.633879,0.156789,0.0,-0.965176,-0.0860022,0.0215097,-0.0042605,-0.102455,0.0459952,0.0967945,-1.74439,0.964402,1.59007,-3.06498,-0.126316,426.876,2.60828,0.255048,0.384019,0.129126,0.0933748,inf,inf,inf,inf,1,1,1,1,2,0,2,1,4,1,1,0
77747070,33157931,34.0343664,108.755141,-29.7689,-1.33211,-2.54323,-0.633879,0.156789,0.0,-0.962305,-0.0706464,0.0198123,-0.00817793,-0.102455,0.0459952,0.0967945,-0.625011,5.54565,-1.35164,-3.0658,-0.126316,426.876,2.61145,0.263791,0.385405,0.133615,0.0943547,inf,inf,inf,inf,1,1,1,1,2,0,2,1,4,1,1,0
77846392,33157931,34.0343664,108.755141,-29.8689,-1.34429,-2.54633,-0.633879,0.156789,0.0,-0.959216,-0.0802499,0.0304001,7.46289e-05,-0.102455,0.0459952,0.0967945,-2.16014,1.54074,2.05776,-3.06525,-0.126316,426.876,2.61455,0.255087,0.383327,0.129045,0.0932866,inf,inf,inf,inf,1,1,1,1,2,0,2,1,4,1,1,0
77945708,33157931,34.0343664,108.755141,-29.9673,-1.35734,-2.54867,-0.633879,0.156789,0.0,-0.946814,-0.0842573,0.0230376,-0.00883516,-0.102455,0.0459952,0.0967945,0.857798,-1.07443,-1.61907,-3.06523,-0.126316,426.876,2.6169,0.263824,0.384704,0.133515,0.0942639,inf,inf,inf,inf,1,1,1,1,2,0,2,1,4,1,1,0
78045027,33157931,34.0343664,108.755141,-30.0646,-1.36949,-2.55126,-0.633879,0.156789,0.0,-0.949259,-0.0946148,0.0364546,0.00240335,-0.102455,0.0459952,0.0967945,-0.296544,-3.63611,1.13778,-3.0653,-0.126316,426.876,2.61949,0.255116,0.382638,0.128984,0.0931995,inf,inf,inf,inf,1,1,1,1,2,0,2,1,4,1,1,0
78149312,33157931,34.0343664,108.755141,-30.1654,-1.38179,-2.55452,-0.633879,0.156789,0.0,-0.951037,-0.0825868,0.039373,0.00243997,-0.102455,0.0459952,0.0967945,-1.0443,-1.00494,1.88923,-3.06562,-0.126316,426.876,2.62274,0.263848,0.386345,0.133485,0.0944142,inf,inf,inf,inf,1,1,1,1,2,0,2,1,4,1,1,0
78238701,33157931,34.0343664,108.755141,-30.2517,-1.39208,-2.55458,-0.633879,0.156789,0.0,-0.941101,-0.0884569,0.0338544,-0.00250552,-0.102455,0.0459952,0.0967945,1.70912,-3.94237,-1.18863,-3.06547,-0.126316,426.876,2.62281,0.254294,0.383654,0.128497,0.0931993,inf,inf,inf,inf,1,1,1,1,2,0,2,1,4,1,1,0
78348077,33157931,34.0343664,108.755141,-30.3573,-1.40303,-2.55257,-0.633879,0.156789,0.0,-0.946377,-0.0906492,0.0465361,0.0125393,-0.102455,0.0459952,0.0967945,-0.220714,-3.92561,1.52708,-3.06561,-0.126316,426.876,2.62079,0.263871,0.38563,0.133619,0.0943225,inf,inf,inf,inf,1,1,1,1,2,0,2,1,4,1,1,0
78442303,33157931,34.0343664,108.755141,-30.4488,-1.41192,-2.54884,-0.633879,0.156789,0.0,-0.944011,-0.0741519,0.0482956,0.0174455,-0.102455,0.0459952,0.0967945,0.110886,-0.0764501,1.48436,-3.06646,-0.126316,426.876,2.61706,0.254311,0.382938,0.128654,0.0931075,inf,inf,inf,inf,1,1,1,1,2,0,2,1,4,1,1,0
78541631,33157931,34.0343664,108.755141,-30.5464,-1.42057,-2.54481,-0.633879,0.156789,0.0,-0.944609,-0.0784982,0.0390735,0.0113626,-0.102455,0.0459952,0.0967945,1.756,-4.64078,-1.40745,-3.06576,-0.126316,426.876,2.61304,0.26299,0.386642,0.133107,0.0943223,inf,inf,inf,inf,1,1,1,1,2,0,2,1,4,1,1,0
78641133,33157931,34.0343664,108.755141,-30.6435,-1.42871,-2.5426,-0.633879,0.156789,0.0,-0.951192,-0.0618675,0.0388308,0.0124557,-0.102455,0.0459952,0.0967945,0.44011,-1.2186,0.455188,-3.06613,-0.126316,426.876,2.61083,0.254414,0.384544,0.12883,0.0932587,inf,inf,inf,inf,1,1,1,1,2,0,2,1,4,1,1,0
78740274,33157931,34.0343664,108.755141,-30.739,-1.43671,-2.541,-0.633879,0.156789,0.0,-0.949682,-0.0608458,0.0328015,0.0072835,-0.102455,0.0459952,0.0967945,-0.72699,-1.86328,1.12316,-3.06638,-0.126316,426.876,2.60923,0.263107,0.385927,0.133371,0.0942403,inf,inf,inf,inf,1,1,1,1,2,0,2,1,4,1,1,0
78849512,33157931,34.0343664,108.755141,-30.8449,-1.44367,-2.54132,-0.633879,0.156789,0.0,-0.949911,-0.0422194,0.0186073,-0.00744607,-0.102455,0.0459952,0.0967945,1.91329,1.71686,-2.95536,-3.06712,-0.126316,426.876,2.60954,0.255231,0.384442,0.129243,0.0933165,inf,inf,inf,inf,1,1,1,1,2,0,2,1,4,1,1,0
78943870,33157931,34.0343664,108.755141,-30.9365,-1.44854,-2.54086,-0.633879,0.156789,0.0,-0.949585,-0.0551872,0.0224142,-0.00325522,-0.102455,0.0459952,0.0967945,-0.14371,1.03057,-0.376633,-3.06599,-0.126316,426.876,2.60909,0.263075,0.385218,0.133347,0.0941507,inf,inf,inf,inf,1,1,1,1,2,0,2,1,4,1,1,0
79043184,33157931,34.0343664,108.755141,-31.0338,-1.45143,-2.53971,-0.633879,0.156789,0.0,-0.955534,-0.0555719,0.0281434,0.00399944,-0.102455,0.0459952,0.0967945,-0.680784,-0.302494,1.05389,-3.06664,-0.126316,426.876,2.60794,0.254359,0.383148,0.128812,0.0930856,inf,inf,inf,inf,1,1,1,1,2,0,2,1,4,1,1,0
79142521,33157931,34.0343664,108.755141,-31.1323,-1.45185,-2.53843,-0.633879,0.156789,0.0,-0.949381,-0.0537727,0.0160845,-0.0064508,-0.102455,0.0459952,0.0967945,2.59898,-1.79193,-3.27495,-3.06601,-0.126316,426.876,2.60666,0.263049,0.38452,0.133488,0.0940643,inf,inf,inf,inf,1,1,1,1,2,0,2,1,4,1,1,0
79241826,33157931,34.0343664,108.755141,-31.2291,-1.452,-2.53604,-0.633879,0.156789,0.0,-0.961503,-0.0429165,0.0220426,0.00193829,-0.102455,0.0459952,0.0967945,1.47431,1.46773,-1.44284,-3.0664,-0.126316,426.876,2.60427,0.254338,0.382461,0.128911,0.0930022,inf,inf,inf,inf,1,1,1,1,2,0,2,1,4,1,1,0
79341143,33157931,34.0343664,108.755141,-31.3239,-1.45256,-2.53315,-0.633879,0.156789,0.0,-0.966659,-0.0403335,0.0264433,0.0088547,-0.102455,0.0459952,0.0967945,-1.12383,-0.12621,1.39866,-3.06603,-0.126316,426.876,2.60138,0.263027,0.386161,0.133457,0.0942165,inf,inf,inf,inf,1,1,1,1,2,0,2,1,4,1,1,0
79440666,33157931,34.0343664,108.755141,-31.4181,-1.45542,-2.53073,-0.633879,0.156789,0.0,-0.967667,-0.0320897,0.0172778,0.00175597,-0.102455,0.0459952,0.0967945,-0.116391,3.92527,-1.0691,-3.06666,-0.126316,426.876,2.59896,0.25432,0.384083,0.128853,0.0931504,inf,inf,inf,inf,1,1,1,1,2,0,2,1,4,1,1,0
79544745,33157931,34.0343664,108.755141,-31.5162,-1.46058,-2.52723,-0.633879,0.156789,0.0,-0.964649,-0.0476153,0.0108642,-0.00161041,-0.102455,0.0459952,0.0967945,1.09373,0.704992,-2.6525,-3.06617,-0.126316,426.876,2.59545,0.263004,0.385471,0.133346,0.0941319,inf,inf,inf,inf,1,1,1,1,2,0,2,1,4,1,1,0
79644064,33157931,34.0343664,108.755141,-31.61,-1.46646,-2.52375,-0.633879,0.156789,0.0,-0.970056,-0.0575707,0.0145071,0.00525272,-0.102455,0.0459952,0.0967945,-1.87354,4.63545,1.39301,-3.06676,-0.126316,426.876,2.59198,0.254301,0.383403,0.129003,0.0930699,inf,inf,inf,inf,1,1,1,1,2,0,2,1,4,1,1,0
79743383,33157931,34.0343664,108.755141,-31.7036,-1.47324,-2.52223,-0.633879,0.156789,0.0,-0.973951,-0.0554515,0.00694691,-0.000602185,-0.102455,0.0459952,0.0967945,-0.879048,2.12912,0.393681,-3.06608,-0.126316,426.876,2.59046,0.262992,0.384782,0.133521,0.0940488,inf,inf,inf,inf,1,1,1,1,2,0,2,1,4,1,1,0
79842704,33157931,34.0343664,108.755141,-31.7997,-1.48127,-2.51935,-0.633879,0.156789,0.0,-0.975473,-0.0699381,-0.000585285,-0.0048351,-0.102455,0.0459952,0.0967945,1.23521,1.63148,-1.29587,-3.06646,-0.126316,426.876,2.58757,0.25438,0.382722,0.129022,0.0929955,inf,inf,inf,inf,1,1,1,1,2,0,2,1,4,1,1,0
79942026,33157931,34.0343664,108.755141,-31.8975,-1.4901,-2.51446,-0.633879,0.156789,0.0,-0.980454,-0.0808416,0.00591954,0.00647896,-0.102455,0.0459952,0.0967945,-0.775331,-3.23449,2.10655,-3.06596,-0.126316,426.876,2.58269,0.263077,0.38642,0.133567,0.0942077,inf,inf,inf,inf,1,1,1,1,2,0,2,1,4,1,1,0
80041341,33157931,34.0343664,108.755141,-31.998,-1.49767,-2.51095,-0.633879,0.156789,0.0,-0.980261,-0.0929884,-0.0112737,-0.00700794,-0.102455,0.0459952,0.0967945,0.79483,-2.80843,-0.933228,-3.0654,-0.126316,426.876,2.57918,0.254395,0.384329,0.128985,0.0931401,inf,inf,inf,inf,1,1,1,1,2,0,2,1,4,1,1,0
80140662,33157931,34.0343664,108.755141,-32.1018,-1.50432,-2.50804,-0.633879,0.156789,0.0,-0.987309,-0.0801016,-0.0170548,-0.0093472,-0.102455,0.0459952,0.0967945,0.450604,0.333271,-0.454881,-3.0662,-0.126316,426.876,2.57627,0.263089,0.385703,0.133494,0.0941176,inf,inf,inf,inf,1,1,1,1,2,0,2,1,4,1,1,0
80240118,33157931,34.0343664,108.755141,-32.2052,-1.51431,-2.50563,-0.633879,0.156789,0.0,-0.997549,-0.0877454,-0.0193256,-0.00872353,-0.102455,0.0459952,0.0967945,0.230197,-2.33001,-0.340627,-3.06517,-0.126316,426.876,2.57385,0.254406,0.383617,0.128973,0.093052,inf,inf,inf,inf,1,1,1,1,2,0,2,1,4,1,1,0
80339300,33157931,34.0343664,108.755141,-32.3075,-1.52676,-2.5043,-0.633879,0.156789,0.0,-0.998838,-0.0812696,-0.0277839,-0.0151112,-0.102455,0.0459952,0.0967945,1.15118,1.7966,-1.98944,-3.06525,-0.126316,426.876,2.57253,0.263099,0.384982,0.133482,0.0940273,inf,inf,inf,inf,1,1,1,1,2,0,2,1,4,1,1,0
80448549,33157931,34.0343664,108.755141,-32.4205,-1.5414,-2.5053,-0.633879,0.156789,0.0,-1.00977,-0.0886119,-0.0174009,-0.0046979,-0.102455,0.0459952,0.0967945,-3.05404,1.77198,3.27674,-3.06435,-0.126316,426.876,2.57352,0.255261,0.383505,0.129401,0.0931094,inf,inf,inf,inf,1,1,1,1,2,0,2,1,4,1,1,0
80537937,33157931,34.0343664,108.755141,-32.513,-1.55311,-2.50837,-0.633879,0.156789,0.0,-1.00666,-0.0904259,-0.032201,-0.0211428,-0.102455,0.0459952,0.0967945,-0.596744,1.90153,-0.0839846,-3.06401,-0.126316,426.876,2.5766,0.263107,0.384265,0.133429,0.0939377,inf,inf,inf,inf,1,1,1,1,2,0,2,1,4,1,1,0
80647188,33157931,34.0343664,108.755141,-32.6251,-1.56739,-2.5123,-0.633879,0.156789,0.0,-0.998086,-0.100695,-0.0293785,-0.0200074,-0.102455,0.0459952,0.0967945,0.748589,-0.463825,0.266624,-3.06385,-0.126316,426.876,2.58053,0.255268,0.382799,0.129305,0.093023,inf,inf,inf,inf,1,1,1,1,2,0,2,1,4,1,1,0
80746506,33157931,34.0343664,108.755141,-32.7261,-1.58015,-2.51503,-0.633879,0.156789,0.0,-0.991637,-0.0993471,-0.0360663,-0.0275875,-0.102455,0.0459952,0.0967945,2.88899,-3.58379,-2.366,-3.06311,-0.126316,426.876,2.58325,0.264009,0.386499,0.133839,0.0942331,inf,inf,inf,inf,1,1,1,1,2,0,2,1,4,1,1,0
80845826,33157931,34.0343664,108.755141,-32.8267,-1.59281,-2.51796,-0.633879,0.156789,0.0,-1.0015,-0.0857892,-0.0244086,-0.0170571,-0.102455,0.0459952,0.0967945,0.449607,2.75038,-0.947232,-3.06402,-0.126316,426.876,2.58618,0.255272,0.384409,0.12924,0.0931706,inf,inf,inf,inf,1,1,1,1,2,0,2,1,4,1,1,0
80945175,33157931,34.0343664,108.755141,-32.9267,-1.60574,-2.51947,-0.633879,0.156789,0.0,-1.00269,-0.0808496,-0.0179115,-0.0106788,-0.102455,0.0459952,0.0967945,-1.26859,1.50866,1.7075,-3.06426,-0.126316,426.876,2.5877,0.264008,0.385782,0.133779,0.094146,inf,inf,inf,inf,1,1,1,1,2,0,2,1,4,1,1,0
81044563,33157931,34.0343664,108.755141,-33.0245,-1.6179,-2.52109,-0.633879,0.156789,0.0,-0.995918,-0.0705767,-0.0225907,-0.0155809,-0.102455,0.0459952,0.0967945,-0.209141,3.45917,-0.118303,-3.06502,-0.126316,426.876,2.58931,0.255146,0.383693,0.12906,0.0930758,inf,inf,inf,inf,1,1,1,1,2,0,2,1,4,1,1,0
81148786,33157931,34.0343664,108.755141,-33.1245,-1.62977,-2.52352,-0.633879,0.156789,0.0,-0.995212,-0.0726303,-0.0252985,-0.0193521,-0.102455,0.0459952,0.0967945,-0.239301,4.03097,-1.67191,-3.06528,-0.126316,426.876,2.59175,0.263865,0.385058,0.133556,0.0940487,inf,inf,inf,inf,1,1,1,1,2,0,2,1,4,1,1,0
81238137,33157931,34.0343664,108.755141,-33.2102,-1.63953,-2.5269,-0.633879,0.156789,0.0,-0.986055,-0.0643624,-0.0142853,-0.010591,-0.102455,0.0459952,0.0967945,-3.03938,3.85695,3.33424,-3.06499,-0.126316,426.876,2.59513,0.254275,0.384701,0.128583,0.0930782,inf,inf,inf,inf,1,1,1,1,2,0,2,1,4,1,1,0
81347387,33157931,34.0343664,108.755141,-33.3149,-1.65283,-2.53391,-0.633879,0.156789,0.0,-0.979672,-0.0720869,-0.0243421,-0.0255195,-0.102455,0.0459952,0.0967945,0.356845,2.31256,-1.05803,-3.06482,-0.126316,426.876,2.60214,0.263843,0.384342,0.133691,0.0939628,inf,inf,inf,inf,1,1,1,1,2,0,2,1,4,1,1,0
81446709,33157931,34.0343664,108.755141,-33.4122,-1.6618,-2.54065,-0.633879,0.156789,0.0,-0.976671,-0.0770318,-0.0145484,-0.0202145,-0.102455,0.0459952,0.0967945,1.28015,-1.462,0.10149,-3.06454,-0.126316,426.876,2.60888,0.255062,0.384597,0.12911,0.0931417,inf,inf,inf,inf,1,1,1,1,2,0,2,1,4,1,1,0
81546025,33157931,34.0343664,108.755141,-33.5111,-1.66965,-2.54688,-0.633879,0.156789,0.0,-0.977032,-0.0719702,-0.0183038,-0.0281914,-0.102455,0.0459952,0.0967945,2.90713,-2.80746,-3.05392,-3.06398,-0.126316,426.876,2.6151,0.263783,0.385977,0.133638,0.0941187,inf,inf,inf,inf,1,1,1,1,2,0,2,1,4,1,1,0
81640379,33157931,34.0343664,108.755141,-33.6059,-1.67465,-2.54985,-0.633879,0.156789,0.0,-0.993513,-0.065256,-0.00369856,-0.0147435,-0.102455,0.0459952,0.0967945,-0.219916,-3.9112,0.782985,-3.06361,-0.126316,426.876,2.61808,0.254169,0.383302,0.1286,0.092917,inf,inf,inf,inf,1,1,1,1,2,0,2,1,4,1,1,0
81739698,33157931,34.0343664,108.755141,-33.707,-1.67848,-2.55182,-0.633879,0.156789,0.0,-0.991228,-0.0540137,-0.00727829,-0.0186609,-0.102455,0.0459952,0.0967945,1.35695,0.423982,-1.5841,-3.06455,-0.126316,426.876,2.62005,0.262832,0.384664,0.133095,0.0938915,inf,inf,inf,inf,1,1,1,1,2,0,2,1,4,1,1,0
81839064,33157931,34.0343664,108.755141,-33.8068,-1.68288,-2.55253,-0.633879,0.156789,0.0,-0.995014,-0.0516322,0.00224127,-0.00856779,-0.102455,0.0459952,0.0967945,0.392409,-0.0166519,-0.234074,-3.06391,-0.126316,426.876,2.62076,0.254083,0.382607,0.128688,0.0928375,inf,inf,inf,inf,1,1,1,1,2,0,2,1,4,1,1,0
