timestamp,ref_timestamp,ref_lat,ref_lon,x,y,z,delta_xy[0],delta_xy[1],delta_z,vx,vy,vz,z_deriv,delta_vxy[0],delta_vxy[1],delta_vz,ax,ay,az,heading,delta_heading,ref_alt,dist_bottom,eph,epv,evh,evv,vxy_max,vz_max,hagl_min,hagl_max,xy_valid,z_valid,v_xy_valid,v_z_valid,xy_reset_counter,z_reset_counter,vxy_reset_counter,vz_reset_counter,heading_reset_counter,xy_global,z_global,dist_bottom_valid
20839937,0,0.0,0.0,0.0,0.0,0.65019,4.86379e-05,4.49719e-07,0.0,0.0396518,0.0160846,0.0832387,-0.00887834,0.00979517,9.05687e-05,0.0,-0.0255257,-0.058386,0.0455601,-1.46821,0.0125936,0.0,0.1,0.404882,0.620353,0.353373,0.195994,inf,inf,inf,inf,0,1,0,1,1,0,1,0,2,0,0,1
20849876,0,0.0,0.0,0.0,0.0,0.650239,4.86379e-05,4.49719e-07,0.0,0.0390399,0.0196334,0.0824698,-0.00940326,0.00979517,9.05687e-05,0.0,-0.0955552,0.55631,-0.167846,-1.46899,0.0125936,0.0,0.1,0.407927,0.612404,0.354952,0.194102,inf,inf,inf,inf,0,1,0,1,1,0,1,0,2,0,0,1
20949186,0,0.0,0.0,0.0,0.0,0.651548,4.86379e-05,4.49719e-07,0.0,0.0392544,0.012733,0.0825407,-0.00628993,0.00979517,9.05687e-05,0.0,-0.0674134,-0.169419,0.0296995,-1.46871,0.0125936,0.0,0.1,0.374033,0.619084,0.329277,0.194478,inf,inf,inf,inf,0,1,0,1,1,0,1,0,2,0,0,1
21048517,0,0.0,0.0,0.0,0.0,0.652524,4.86379e-05,4.49719e-07,0.0,0.0266211,0.0142848,0.0813773,-0.00516791,0.00979517,9.05687e-05,0.0,-1.51609,1.08766,-0.472685,-1.46756,0.0125936,0.0,0.1,0.402699,0.616221,0.344228,0.192771,inf,inf,inf,inf,0,1,0,1,1,0,1,0,2,0,0,1
21147822,0,0.0,0.0,0.0,0.0,0.654428,4.86379e-05,4.49719e-07,0.0,0.0342772,0.0198384,0.0884324,0.00478815,0.00979517,9.05687e-05,0.0,0.749715,0.502294,-0.334997,-1.46776,0.0125936,0.0,0.1,0.369423,0.613324,0.319461,0.191041,inf,inf,inf,inf,0,1,0,1,1,0,1,0,2,0,0,1
21247144,0,0.0,0.0,0.0,0.0,0.659407,4.86379e-05,4.49719e-07,0.0,0.0353907,0.014932,0.0840728,0.00587866,0.00979517,9.05687e-05,0.0,0.270239,-0.263773,0.0847646,-1.46613,0.0125936,0.0,0.1,0.397181,0.610527,0.333684,0.189385,inf,inf,inf,inf,0,1,0,1,1,0,1,0,2,0,0,1
21346459,0,0.0,0.0,0.0,0.0,0.66413,4.86379e-05,4.49719e-07,0.0,0.0293341,0.0194707,0.087518,0.0136202,0.00979517,9.05687e-05,0.0,-0.0237971,-0.618973,-0.488012,-1.46493,0.0125936,0.0,0.1,0.42674,0.60774,0.348152,0.187753,inf,inf,inf,inf,0,1,0,1,1,0,1,0,2,0,0,1
21445778,0,0.0,0.0,0.0,0.0,0.669539,4.86379e-05,4.49719e-07,0.0,0.028858,0.0259017,0.0899788,0.0204073,0.00979517,9.05687e-05,0.0,0.0172515,0.723656,1.02616,-1.46249,0.0125936,0.0,0.1,0.391532,0.60497,0.323576,0.18612,inf,inf,inf,inf,0,1,0,1,1,0,1,0,2,0,0,1
21545182,0,0.0,0.0,0.0,0.0,0.672895,4.86379e-05,4.49719e-07,0.0,0.0247904,0.0196358,0.0867412,0.0188319,0.00979517,9.05687e-05,0.0,-0.450461,1.50245,-0.157203,-1.46143,0.0125936,0.0,0.1,0.420123,0.611408,0.3374,0.186515,inf,inf,inf,inf,0,1,0,1,1,0,1,0,2,0,0,1
21644416,0,0.0,0.0,0.0,0.0,0.675631,4.86379e-05,4.49719e-07,0.0,0.0268348,0.0157695,0.0876714,0.0205935,0.00979517,9.05687e-05,0.0,-0.127057,-0.875545,-0.155031,-1.45952,0.0125936,0.0,0.1,0.385866,0.608579,0.313734,0.184889,inf,inf,inf,inf,0,1,0,1,1,0,1,0,2,0,0,1
21743733,0,0.0,0.0,0.0,0.0,0.677543,4.86379e-05,4.49719e-07,0.0,0.0275447,0.0220039,0.0845339,0.017263,0.00979517,9.05687e-05,0.0,0.678966,0.317478,-1.09136,-1.45788,0.0125936,0.0,0.1,0.413521,0.605836,0.327027,0.183333,inf,inf,inf,inf,0,1,0,1,1,0,1,0,2,0,0,1
21843224,0,0.0,0.0,0.0,0.0,0.675454,4.86379e-05,4.49719e-07,0.0,0.0204557,0.0173703,0.0873748,0.0160389,0.00979517,9.05687e-05,0.0,-0.0510308,-0.116464,-0.984216,-1.45697,0.0125936,0.0,0.1,0.380257,0.603076,0.304513,0.181771,inf,inf,inf,inf,0,1,0,1,1,0,1,0,2,0,0,1
21947336,0,0.0,0.0,0.0,0.0,0.672875,4.86379e-05,4.49719e-07,0.0,0.0207186,0.0170853,0.0855919,0.00983697,0.00979517,9.05687e-05,0.0,-0.609635,-0.479352,-0.893967,-1.45536,0.0125936,0.0,0.1,0.40702,0.600353,0.317239,0.180249,inf,inf,inf,inf,0,1,0,1,1,0,1,0,2,0,0,1
22046654,0,0.0,0.0,0.0,0.0,0.669872,4.86379e-05,4.49719e-07,0.0,0.0218735,0.0221763,0.0863031,0.00677297,0.00979517,9.05687e-05,0.0,0.256302,-0.843751,-0.236527,-1.45363,0.0125936,0.0,0.1,0.375432,0.597664,0.296859,0.178767,inf,inf,inf,inf,0,1,0,1,1,0,1,0,2,0,0,1
22146006,0,0.0,0.0,0.0,0.0,0.668418,4.86379e-05,4.49719e-07,0.0,0.0192705,0.0221091,0.087559,0.00639676,0.00979517,9.05687e-05,0.0,0.819209,0.370409,-0.575327,-1.4528,0.0125936,0.0,0.1,0.401454,0.59505,0.309008,0.17731,inf,inf,inf,inf,0,1,0,1,1,0,1,0,2,0,0,1
22245310,0,0.0,0.0,0.0,0.0,0.668831,4.86379e-05,4.49719e-07,0.0,0.0161394,0.0179628,0.0897382,0.00886256,0.00979517,9.05687e-05,0.0,0.117815,-0.286421,-0.151198,-1.45136,0.0125936,0.0,0.1,0.370621,0.592467,0.288842,0.175864,inf,inf,inf,inf,0,1,0,1,1,0,1,0,2,0,0,1
22344609,0,0.0,0.0,0.0,0.0,0.670354,4.86379e-05,4.49719e-07,0.0,0.01635,0.0206307,0.0907871,0.0112007,0.00979517,9.05687e-05,0.0,0.0100658,-0.279898,0.677691,-1.44951,0.0125936,0.0,0.1,0.39588,0.598516,0.300553,0.176234,inf,inf,inf,inf,0,1,0,1,1,0,1,0,2,0,0,1
22443929,0,0.0,0.0,0.0,0.0,0.672782,4.86379e-05,4.49719e-07,0.0,0.0126446,0.019533,0.0891818,0.0115562,0.00979517,9.05687e-05,0.0,0.602533,0.63366,0.58378,-1.44879,0.0125936,0.0,0.1,0.36581,0.595881,0.281151,0.174806,inf,inf,inf,inf,0,1,0,1,1,0,1,0,2,0,0,1
22543246,0,0.0,0.0,0.0,0.0,0.67629,4.86379e-05,4.49719e-07,0.0,0.00828786,0.0141016,0.0882823,0.0133603,0.00979517,9.05687e-05,0.0,-0.249166,0.161006,0.0503794,-1.44789,0.0125936,0.0,0.1,0.390331,0.593277,0.29237,0.173412,inf,inf,inf,inf,0,1,0,1,1,0,1,0,2,0,0,1
22642677,0,0.0,0.0,0.0,0.0,0.679192,4.86379e-05,4.49719e-07,0.0,0.00989384,0.0158281,0.0878667,0.0146687,0.00979517,9.05687e-05,0.0,-0.899221,-0.406437,-0.0313134,-1.44637,0.0125936,0.0,0.1,0.361051,0.590621,0.273847,0.172007,inf,inf,inf,inf,0,1,0,1,1,0,1,0,2,0,0,1
22746850,0,0.0,0.0,0.0,0.0,0.683169,4.86379e-05,4.49719e-07,0.0,0.0116915,0.0160036,0.0895119,0.0184473,0.00979517,9.05687e-05,0.0,0.596257,0.00325329,0.192894,-1.44518,0.0125936,0.0,0.1,0.384866,0.588003,0.284648,0.170641,inf,inf,inf,inf,0,1,0,1,1,0,1,0,2,0,0,1
22846168,0,0.0,0.0,0.0,0.0,0.685394,4.86379e-05,4.49719e-07,0.0,0.00754818,0.012556,0.0884153,0.0179457,0.00979517,9.05687e-05,0.0,0.152701,0.130396,-0.145594,-1.44492,0.0125936,0.0,0.1,0.35694,0.593786,0.2678,0.171001,inf,inf,inf,inf,0,1,0,1,1,0,1,0,2,0,0,1
22945486,0,0.0,0.0,0.0,0.0,0.687006,4.86379e-05,4.49719e-07,0.0,0.0071677,0.00789237,0.0896527,0.0192673,0.00979517,9.05687e-05,0.0,-0.16895,-1.30873,-0.396184,-1.4439,0.0125936,0.0,0.1,0.38017,0.591169,0.27824,0.169663,inf,inf,inf,inf,0,1,0,1,1,0,1,0,2,0,0,1
23044827,0,0.0,0.0,0.0,0.0,0.688895,4.86379e-05,4.49719e-07,0.0,0.00452962,0.0092639,0.0892446,0.0191374,0.00979517,9.05687e-05,0.0,-1.30965,-1.18242,-1.44176,-1.44222,0.0125936,0.0,0.1,0.352849,0.58851,0.2615,0.16832,inf,inf,inf,inf,0,1,0,1,1,0,1,0,2,0,0,1
23144144,0,0.0,0.0,0.0,0.0,0.689875,4.86379e-05,4.49719e-07,0.0,0.00359272,0.0194861,0.0834536,0.0126937,0.00979517,9.05687e-05,0.0,1.50215,1.216,0.117372,-1.44213,0.0125936,0.0,0.1,0.375474,0.58585,0.272135,0.167002,inf,inf,inf,inf,0,1,0,1,1,0,1,0,2,0,0,1
23248407,0,0.0,0.0,0.0,0.0,0.688431,4.86379e-05,4.49719e-07,0.0,-0.00139665,0.00524814,0.0914848,0.0174243,0.00979517,9.05687e-05,0.0,-0.579071,-0.67661,0.855973,-1.44106,0.0125936,0.0,0.1,0.399217,0.583245,0.285461,0.165717,inf,inf,inf,inf,0,1,0,1,1,0,1,0,2,0,0,1
23347726,0,0.0,0.0,0.0,0.0,0.685058,4.86379e-05,4.49719e-07,0.0,0.000688989,0.00605063,0.0933494,0.0150226,0.00979517,9.05687e-05,0.0,0.448484,-2.25382,1.43266,-1.4401,0.0125936,0.0,0.1,0.424426,0.588862,0.301345,0.166066,inf,inf,inf,inf,0,1,0,1,1,0,1,0,2,0,0,1
23447144,0,0.0,0.0,0.0,0.0,0.679565,4.86379e-05,4.49719e-07,0.0,0.00198628,0.0217668,0.0858765,0.00186222,0.00979517,9.05687e-05,0.0,1.58276,2.28514,-1.17265,-1.43937,0.0125936,0.0,0.1,0.450857,0.586266,0.319823,0.164833,inf,inf,inf,inf,0,1,0,1,1,0,1,0,2,0,0,1
23541397,0,0.0,0.0,0.0,0.0,0.676373,4.86379e-05,4.49719e-07,0.0,-0.00839281,0.0158095,0.0826588,-0.00453844,0.00979517,9.05687e-05,0.0,-2.35569,2.53488,-1.00313,-1.43894,0.0125936,0.0,0.100329,0.476153,0.582365,0.337816,0.16342,inf,inf,inf,inf,0,1,0,1,1,0,1,0,2,0,0,1
23640713,0,0.0,0.0,0.0,0.0,0.672135,4.86379e-05,4.49719e-07,0.0,-0.00109645,0.0247196,0.0821496,-0.00831044,0.00979517,9.05687e-05,0.0,1.50091,3.34959,-0.43783,-1.43765,0.0125936,0.0,0.104567,0.505525,0.579856,0.359107,0.16222,inf,inf,inf,inf,0,1,0,1,1,0,1,0,2,0,0,1
23749987,0,0.0,0.0,0.0,0.0,0.668739,4.86379e-05,4.49719e-07,0.0,-0.0043459,0.0188029,0.0848824,-0.00732554,0.00979517,9.05687e-05,0.0,-0.166004,1.4995,1.09687,-1.43647,0.0125936,0.0,0.107963,0.540304,0.578738,0.384682,0.161265,inf,inf,inf,inf,0,1,0,1,1,0,1,0,2,0,0,1
23849284,0,0.0,0.0,0.0,0.0,0.667212,4.86379e-05,4.49719e-07,0.0,0.00632337,0.00616652,0.093879,0.00178271,0.00979517,9.05687e-05,0.0,0.990306,-3.54314,2.95333,-1.43617,0.0125936,0.0,0.10949,0.573528,0.576251,0.408514,0.1601,inf,inf,inf,inf,0,1,0,1,1,0,1,0,2,0,0,1
23948604,0,0.0,0.0,0.0,0.0,0.664358,4.86379e-05,4.49719e-07,0.0,-0.00445611,0.0190231,0.0769588,-0.0163574,0.00979517,9.05687e-05,0.0,-0.24835,1.76476,-2.179,-1.43632,0.0125936,0.0,0.112344,0.609313,0.573784,0.433468,0.158957,inf,inf,inf,inf,0,1,0,1,1,0,1,0,2,0,0,1
24047921,0,0.0,0.0,0.0,0.0,0.662973,4.86379e-05,4.49719e-07,0.0,-0.00444495,0.0163756,0.0835316,-0.00946724,0.00979517,9.05687e-05,0.0,-0.494262,-0.802762,1.03457,-1.43572,0.0125936,0.0,0.113729,0.646688,0.579139,0.458952,0.159327,inf,inf,inf,inf,0,1,0,1,1,0,1,0,2,0,0,1
24147239,0,0.0,0.0,0.0,0.0,0.659867,4.86379e-05,4.49719e-07,0.0,-0.000608187,0.0168394,0.0745163,-0.0197945,0.00979517,9.05687e-05,0.0,-1.55507,1.65915,-1.82186,-1.43675,0.0125936,0.0,0.116835,0.687095,0.576647,0.485483,0.158207,inf,inf,inf,inf,0,1,0,1,1,0,1,0,2,0,0,1
24246620,0,0.0,0.0,0.0,0.0,0.65543,4.86379e-05,4.49719e-07,0.0,0.00819586,0.0174661,0.0767549,-0.0198162,0.00979517,9.05687e-05,0.0,1.45283,1.26567,-0.320906,-1.43696,0.0125936,0.0,0.121272,0.730023,0.574209,0.51249,0.157114,inf,inf,inf,inf,0,1,0,1,1,0,1,0,2,0,0,1
24345877,0,0.0,0.0,0.0,0.0,0.652061,4.86379e-05,4.49719e-07,0.0,-0.00215575,0.0168752,0.0780503,-0.0193457,0.00979517,9.05687e-05,0.0,-0.16172,1.11747,-0.192659,-1.43868,0.0125936,0.0,0.124641,0.77454,0.571792,0.539553,0.156048,inf,inf,inf,inf,0,1,0,1,1,0,1,0,2,0,0,1
24445240,0,0.0,0.0,0.0,0.0,0.650028,4.86379e-05,4.49719e-07,0.0,-0.00296431,0.0164806,0.0765836,-0.020178,0.00979517,9.05687e-05,0.0,-1.21594,-0.242727,0.950375,-1.43922,0.0125936,0.0,0.126674,0.822772,0.569393,0.567613,0.154996,inf,inf,inf,inf,0,1,0,1,1,0,1,0,2,0,0,1
24544517,0,0.0,0.0,0.0,0.0,0.646449,4.86379e-05,4.49719e-07,0.0,0.00451828,0.0213513,0.0749217,-0.022664,0.00979517,9.05687e-05,0.0,0.539171,-1.16128,0.207072,-1.43836,0.0125936,0.0,0.130253,0.872313,0.567049,0.595285,0.153977,inf,inf,inf,inf,0,1,0,1,1,0,1,0,2,0,0,1
24643832,0,0.0,0.0,0.0,0.0,0.641495,4.86379e-05,4.49719e-07,0.0,-0.0114429,0.00957586,0.0691335,-0.0304035,0.00979517,9.05687e-05,0.0,-1.30588,-0.193862,-0.85867,-1.4403,0.0125936,0.0,0.135207,0.926171,0.564756,0.624052,0.152982,inf,inf,inf,inf,0,1,0,1,1,0,1,0,2,0,0,1
24743151,0,0.0,0.0,0.0,0.0,0.637414,4.86379e-05,4.49719e-07,0.0,0.0104232,0.0265293,0.0701672,-0.0300388,0.00979517,9.05687e-05,0.0,-0.266064,-0.366865,0.527386,-1.44025,0.0125936,0.0,0.139288,0.980819,0.569919,0.651999,0.153372,inf,inf,inf,inf,0,1,0,1,1,0,1,0,2,0,0,1
24847436,0,0.0,0.0,0.0,0.0,0.633487,4.86379e-05,4.49719e-07,0.0,-0.0179916,0.0296668,0.0664917,-0.034317,0.00979517,9.05687e-05,0.0,-1.70536,1.07105,-1.33313,-1.44114,0.0125936,0.0,0.143215,1.04053,0.567603,0.681287,0.152396,inf,inf,inf,inf,0,1,0,1,1,0,1,0,2,0,0,1
24946754,0,0.0,0.0,0.0,0.0,0.629394,4.86379e-05,4.49719e-07,0.0,0.00738535,0.0122931,0.0648694,-0.0362847,0.00979517,9.05687e-05,0.0,-0.0784272,-0.131962,-0.295353,-1.44235,0.0125936,0.0,0.147308,1.10024,0.565336,0.709293,0.151441,inf,inf,inf,inf,0,1,0,1,1,0,1,0,2,0,0,1
25046098,0,0.0,0.0,0.0,0.0,0.624341,4.86379e-05,4.49719e-07,0.0,-0.000612794,0.0307829,0.0666893,-0.0353688,0.00979517,9.05687e-05,0.0,-0.812355,0.78057,-0.843654,-1.44254,0.0125936,0.0,0.152361,1.16598,0.563088,0.739558,0.15053,inf,inf,inf,inf,0,1,0,1,1,0,1,0,2,0,0,1
25145391,0,0.0,0.0,0.0,0.0,0.620035,4.86379e-05,4.49719e-07,0.0,0.012304,0.0459131,0.0600664,-0.0418226,0.00979517,9.05687e-05,0.0,-2.81824,-0.87511,0.573103,-1.44661,0.0125936,0.0,0.156667,1.23053,0.560888,0.767287,0.149617,inf,inf,inf,inf,0,1,0,1,1,0,1,0,2,0,0,1
25244718,0,0.0,0.0,0.0,0.0,0.614735,4.86379e-05,4.49719e-07,0.0,0.0318526,0.0524286,0.076334,-0.0264883,0.00979517,9.05687e-05,0.0,1.13387,-0.0769618,0.811283,-1.45262,0.0125936,0.0,0.161967,1.30237,0.558735,0.797508,0.148731,inf,inf,inf,inf,0,1,0,1,1,0,1,0,2,0,0,1
25344184,0,0.0,0.0,0.0,0.0,0.610506,4.86379e-05,4.49719e-07,0.0,0.0386977,0.0596022,0.057788,-0.0443427,0.00979517,9.05687e-05,0.0,3.095,-0.979458,3.0032,-1.45998,0.0125936,0.0,0.166196,1.37127,0.556596,0.82464,0.147847,inf,inf,inf,inf,0,1,0,1,1,0,1,0,2,0,0,1
25443347,0,0.0,0.0,0.0,0.0,0.606278,4.86379e-05,4.49719e-07,0.0,0.0463059,0.0801063,0.0645841,-0.0369977,0.00979517,9.05687e-05,0.0,-0.84562,-0.13331,1.06707,-1.46551,0.0125936,0.0,0.170424,1.44917,0.561595,0.855114,0.148261,inf,inf,inf,inf,0,1,0,1,1,0,1,0,2,0,0,1
25542669,0,0.0,0.0,0.0,0.0,0.600901,4.86379e-05,4.49719e-07,0.0,0.0760884,0.0921107,0.0560611,-0.0463967,0.00979517,9.05687e-05,0.0,3.84386,1.46048,-0.405734,-1.47028,0.0125936,0.0,0.175801,1.5218,0.559465,0.881407,0.147408,inf,inf,inf,inf,0,1,0,1,1,0,1,0,2,0,0,1
25646950,0,0.0,0.0,0.0,0.0,0.59698,4.86379e-05,4.49719e-07,0.0,0.0874147,0.107825,0.0518243,-0.0497325,0.00979517,9.05687e-05,0.0,0.996275,-0.270806,0.232538,-1.47338,0.0125936,0.0,0.179722,1.60572,0.55735,0.912056,0.146581,inf,inf,inf,inf,0,1,0,1,1,0,1,0,2,0,0,1
25746268,0,0.0,0.0,0.0,0.0,0.594128,4.86379e-05,4.49719e-07,0.0,0.0705457,0.104437,0.0498367,-0.0495412,0.00979517,9.05687e-05,0.0,-4.16701,-0.0563303,-2.42916,-1.47521,0.0125936,0.0,0.182574,1.68139,0.555249,0.937209,0.145744,inf,inf,inf,inf,0,1,0,1,1,0,1,0,2,0,0,1
25845593,0,0.0,0.0,0.0,0.0,0.591711,4.86379e-05,4.49719e-07,0.0,0.0907219,0.0877331,0.0301274,-0.0655737,0.00979517,9.05687e-05,0.0,-2.96972,-0.34934,-1.66504,-1.47715,0.0125936,0.0,0.184991,1.77125,0.553222,0.968276,0.144961,inf,inf,inf,inf,0,1,0,1,1,0,1,0,2,0,0,1
25949871,0,0.0,0.0,0.0,0.0,0.589771,4.86379e-05,4.49719e-07,0.0,0.111005,0.0577012,0.0403696,-0.0507869,0.00979517,9.05687e-05,0.0,-3.0305,-1.20309,1.97615,-1.47849,0.0125936,0.0,0.186931,1.84902,0.551208,0.991834,0.144187,inf,inf,inf,inf,0,1,0,1,1,0,1,0,2,0,0,1
26049232,0,0.0,0.0,0.0,0.0,0.590743,4.86379e-05,4.49719e-07,0.0,0.134238,0.024446,0.0521379,-0.0332852,0.00979517,9.05687e-05,0.0,0.352817,0.904428,-1.83545,-1.47867,0.0125936,0.0,0.185959,1.94465,0.549208,1.02274,0.143452,inf,inf,inf,inf,0,1,0,1,1,0,1,0,2,0,0,1
26148652,0,0.0,0.0,0.0,0.0,0.594352,4.86379e-05,4.49719e-07,0.0,0.166781,-0.00236381,0.0720098,-0.00696369,0.00979517,9.05687e-05,0.0,4.50236,-0.285625,2.88594,-1.47745,0.0125936,0.0,0.18235,2.02317,0.547279,1.04436,0.142783,inf,inf,inf,inf,0,1,0,1,1,0,1,0,2,0,0,1
26247827,0,0.0,0.0,0.0,0.0,0.596779,4.86379e-05,4.49719e-07,0.0,0.147884,-0.0191767,0.0729235,-0.00263428,0.00979517,9.05687e-05,0.0,-1.53539,-0.160044,-1.66313,-1.47654,0.0125936,0.0,0.179923,2.12433,0.552135,1.07511,0.143322,inf,inf,inf,inf,0,1,0,1,1,0,1,0,2,0,0,1
26347149,0,0.0,0.0,0.0,0.0,0.598253,4.86379e-05,4.49719e-07,0.0,0.158698,-0.0414451,0.0961171,0.0218878,0.00979517,9.05687e-05,0.0,3.32845,0.00546601,-0.602898,-1.47578,0.0125936,0.0,0.178448,2.20205,0.550214,1.09363,0.142682,inf,inf,inf,inf,0,1,0,1,1,0,1,0,2,0,0,1
26441498,0,0.0,0.0,0.0,0.0,0.600376,4.86379e-05,4.49719e-07,0.0,0.14027,0.0123031,0.0389042,-0.0356466,0.00979517,9.05687e-05,0.0,-0.224236,2.70199,-4.40888,-1.47773,0.0125936,0.0,0.176326,2.29762,0.547153,1.12126,0.141883,inf,inf,inf,inf,0,1,0,1,1,0,1,0,2,0,0,1
26540861,0,0.0,0.0,0.0,0.0,0.592607,4.86379e-05,4.49719e-07,0.0,0.0884301,0.0595705,0.0110772,-0.0626752,0.00979517,9.05687e-05,0.0,-3.02065,1.44457,-1.41703,-1.47737,0.0125936,0.0,0.184095,2.37305,0.545264,1.1368,0.141143,inf,inf,inf,inf,0,1,0,1,1,0,1,0,2,0,0,1
26650067,0,0.0,0.0,0.0,0.0,0.588039,4.86379e-05,4.49719e-07,0.0,0.10299,0.0717894,0.0212653,-0.0495389,0.00979517,9.05687e-05,0.0,-1.22242,-0.214365,0.538164,-1.47551,0.0125936,0.0,0.188663,2.49525,0.544582,1.17186,0.140731,inf,inf,inf,inf,0,1,0,1,1,0,1,0,2,0,0,1
26749386,0,0.0,0.0,0.0,0.0,0.58833,4.86379e-05,4.49719e-07,0.0,0.0789214,0.0918045,0.0495144,-0.0166959,0.00979517,9.05687e-05,0.0,-5.9858,0.406236,-0.726574,-1.47658,0.0125936,0.0,0.188372,2.56686,0.542762,1.18377,0.140009,inf,inf,inf,inf,0,1,0,1,1,0,1,0,2,0,0,1
26848704,0,0.0,0.0,0.0,0.0,0.593079,4.86379e-05,4.49719e-07,0.0,0.0996995,0.111533,0.0986565,0.036195,0.00979517,9.05687e-05,0.0,1.0108,2.13422,-0.639197,-1.4767,0.0125936,0.0,0.183623,2.68267,0.54098,1.21402,0.139305,inf,inf,inf,inf,0,1,0,1,1,0,1,0,2,0,0,1
26948135,0,0.0,0.0,0.0,0.0,0.600278,4.86379e-05,4.49719e-07,0.0,0.0853574,0.137818,0.124554,0.0640071,0.00979517,9.05687e-05,0.0,1.59504,0.120694,0.525099,-1.48018,0.0125936,0.0,0.176424,2.74823,0.54574,1.22182,0.139692,inf,inf,inf,inf,0,1,0,1,1,0,1,0,2,0,0,1
27047344,0,0.0,0.0,0.0,0.0,0.609549,4.86379e-05,4.49719e-07,0.0,0.102154,0.149008,0.133796,0.0753765,0.00979517,9.05687e-05,0.0,-0.831311,1.72166,-2.52922,-1.48612,0.0125936,0.0,0.167153,2.86799,0.543931,1.25154,0.139002,inf,inf,inf,inf,0,1,0,1,1,0,1,0,2,0,0,1
27146660,0,0.0,0.0,0.0,0.0,0.61009,4.86379e-05,4.49719e-07,0.0,0.080187,0.12919,0.0125076,-0.044173,0.00979517,9.05687e-05,0.0,2.90163,0.347728,2.41632,-1.48896,0.0125936,0.0,0.166612,2.99085,0.542157,1.28141,0.138311,inf,inf,inf,inf,0,1,0,1,1,0,1,0,2,0,0,1
27245978,0,0.0,0.0,0.0,0.0,0.604244,4.86379e-05,4.49719e-07,0.0,0.0729086,0.140103,-0.0273548,-0.0823466,0.00979517,9.05687e-05,0.0,-2.08633,-1.12561,2.60222,-1.49737,0.0125936,0.0,0.172458,3.04885,0.540379,1.28483,0.137623,inf,inf,inf,inf,0,1,0,1,1,0,1,0,2,0,0,1
27345297,0,0.0,0.0,0.0,0.0,0.594104,4.86379e-05,4.49719e-07,0.0,0.0733865,0.161145,-0.0607723,-0.115789,0.00979517,9.05687e-05,0.0,-2.25287,0.0515658,-0.498801,-1.50816,0.0125936,0.0,0.182598,3.17529,0.538648,1.31545,0.137061,inf,inf,inf,inf,0,1,0,1,1,0,1,0,2,0,0,1
27444620,0,0.0,0.0,0.0,0.0,0.581394,4.86379e-05,4.49719e-07,0.0,0.0837831,0.183192,-0.0800313,-0.135444,0.00979517,9.05687e-05,0.0,1.84572,0.923186,-0.67103,-1.52441,0.0125936,0.0,0.195308,3.22332,0.536912,1.31399,0.1364,inf,inf,inf,inf,0,1,0,1,1,0,1,0,2,0,0,1
27543934,0,0.0,0.0,0.0,0.0,0.564962,4.86379e-05,4.49719e-07,0.0,0.0802791,0.202468,-0.106067,-0.16346,0.00979517,9.05687e-05,0.0,1.56361,-0.0292061,-0.349682,-1.5438,0.0125936,0.0,0.21174,3.35273,0.535196,1.34347,0.135809,inf,inf,inf,inf,0,1,0,1,1,0,1,0,2,0,0,1
27643253,0,0.0,0.0,0.0,0.0,0.5459,4.86379e-05,4.49719e-07,0.0,0.0773049,0.209806,-0.132906,-0.191797,0.00979517,9.05687e-05,0.0,-3.17022,-0.758014,-1.32901,-1.56261,0.0125936,0.0,0.230802,3.3891,0.539805,1.33686,0.136199,inf,inf,inf,inf,0,1,0,1,1,0,1,0,2,0,0,1
27742620,0,0.0,0.0,0.0,0.0,0.526561,4.86379e-05,4.49719e-07,0.0,0.0788821,0.233456,-0.141679,-0.200513,0.00979517,9.05687e-05,0.0,-3.86831,-0.0136925,-0.193099,-1.57542,0.0125936,0.0,0.250141,3.5209,0.538094,1.36564,0.135583,inf,inf,inf,inf,0,1,0,1,1,0,1,0,2,0,0,1
27846855,0,0.0,0.0,0.0,0.0,0.507573,4.86379e-05,4.49719e-07,0.0,0.0957847,0.227862,-0.14287,-0.199771,0.00979517,9.05687e-05,0.0,3.01001,-1.25231,0.703204,-1.58257,0.0125936,0.0,0.269129,3.54422,0.53637,1.35386,0.134936,inf,inf,inf,inf,0,1,0,1,1,0,1,0,2,0,0,1
27946174,0,0.0,0.0,0.0,0.0,0.491429,4.86379e-05,4.49719e-07,0.0,0.0834361,0.190716,-0.131927,-0.185649,0.00979517,9.05687e-05,0.0,-0.173,0.558842,-0.314152,-1.58446,0.0125936,0.0,0.285273,3.67779,0.534646,1.38187,0.134358,inf,inf,inf,inf,0,1,0,1,1,0,1,0,2,0,0,1
28045493,0,0.0,0.0,0.0,0.0,0.477499,4.86379e-05,4.49719e-07,0.0,0.0571059,0.149818,-0.107449,-0.157977,0.00979517,9.05687e-05,0.0,0.268039,-1.88523,1.76084,-1.58663,0.0125936,0.0,0.299203,3.68715,0.53291,1.36517,0.133713,inf,inf,inf,inf,0,1,0,1,1,0,1,0,2,0,0,1
28144897,0,0.0,0.0,0.0,0.0,0.462705,4.86379e-05,4.49719e-07,0.0,0.0608919,0.0606576,-0.0893936,-0.139776,0.00979517,9.05687e-05,0.0,1.72135,0.129066,-1.41517,-1.58451,0.0125936,0.0,0.313997,3.8219,0.531229,1.3922,0.133187,inf,inf,inf,inf,0,1,0,1,1,0,1,0,2,0,0,0
28244130,0,0.0,0.0,0.0,0.0,0.452364,4.86379e-05,4.49719e-07,0.0,0.0359048,-0.0403185,-0.0600977,-0.108568,0.00979517,9.05687e-05,0.0,1.88213,-0.672946,0.861387,-1.58173,0.0125936,0.0,0.324338,3.81669,0.535727,1.37012,0.133738,inf,inf,inf,inf,0,1,0,1,1,0,1,0,2,0,0,0
28343448,0,0.0,0.0,0.0,0.0,0.44181,4.86379e-05,4.49719e-07,0.0,0.0221762,-0.153019,-0.0411001,-0.0901589,0.00979517,9.05687e-05,0.0,-2.26887,-2.17813,1.09432,-1.5797,0.0125936,0.0,0.334892,3.95196,0.534061,1.39634,0.13339,inf,inf,inf,inf,0,1,0,1,1,0,1,0,2,0,0,0
28442767,0,0.0,0.0,0.0,0.0,0.431327,4.86379e-05,4.49719e-07,0.0,-0.00263055,-0.269728,-0.0222341,-0.0735637,0.00979517,9.05687e-05,0.0,-4.77296,-1.30172,0.722858,-1.5756,0.0125936,0.0,0.345375,3.932,0.532381,1.36978,0.133063,inf,inf,inf,inf,0,1,0,1,1,0,1,0,2,0,0,0
28542111,0,0.0,0.0,0.0,0.0,0.422581,4.86379e-05,4.49719e-07,0.0,-0.00247029,-0.367046,-0.00896884,-0.0623078,0.00979517,9.05687e-05,0.0,0.510352,-1.14112,-0.0578731,-1.57226,0.0125936,0.0,0.354121,4.06724,0.530745,1.39517,0.132851,inf,inf,inf,inf,0,1,0,1,1,0,1,0,2,0,0,0
28646370,0,0.0,0.0,0.0,0.0,0.414326,4.86379e-05,4.49719e-07,0.0,-0.0264257,-0.487976,0.00012077,-0.0557598,0.00979517,9.05687e-05,0.0,-4.53426,-2.12893,1.29491,-1.56984,0.0125936,0.0,0.362376,4.03391,0.529114,1.36506,0.132589,inf,inf,inf,inf,0,1,0,1,1,0,1,0,2,0,0,0
28745689,0,0.0,0.0,0.0,0.0,0.406717,4.86379e-05,4.49719e-07,0.0,-0.0197438,-0.545677,-0.0367955,-0.0929188,0.00979517,9.05687e-05,0.0,-0.487719,-0.165274,-1.2128,-1.57011,0.0125936,0.0,0.369985,4.16868,0.527534,1.38973,0.132441,inf,inf,inf,inf,0,1,0,1,1,0,1,0,2,0,0,0
28845182,0,0.0,0.0,0.0,0.0,0.396539,4.86379e-05,4.49719e-07,0.0,-0.0419264,-0.583835,-0.0702648,-0.125426,0.00979517,9.05687e-05,0.0,0.277598,-0.550384,1.10448,-1.57093,0.0125936,0.0,0.380163,4.12154,0.525976,1.35658,0.132165,inf,inf,inf,inf,0,1,0,1,1,0,1,0,2,0,0,0
28949314,0,0.0,0.0,0.0,0.0,0.383435,4.86379e-05,4.49719e-07,0.0,-0.0316255,-0.601753,-0.0973856,-0.151237,0.00979517,9.05687e-05,0.0,3.68955,-0.199548,0.239233,-1.56832,0.0125936,0.0,0.393267,4.25552,0.530487,1.38071,0.132952,inf,inf,inf,inf,0,1,0,1,1,0,1,0,2,0,0,0
29048611,0,0.0,0.0,0.0,0.0,0.369682,4.86379e-05,4.49719e-07,0.0,-0.0427234,-0.587748,-0.124855,-0.175863,0.00979517,9.05687e-05,0.0,2.4261,0.116208,0.524537,-1.56524,0.0125936,0.0,0.40702,4.19664,0.528919,1.34519,0.13246,inf,inf,inf,inf,0,1,0,1,1,0,1,0,2,0,0,0
29142963,0,0.0,0.0,0.0,0.0,0.351695,4.86379e-05,4.49719e-07,0.0,-0.0843476,-0.559871,-0.160335,-0.211286,0.00979517,9.05687e-05,0.0,-4.59979,1.82342,-2.15577,-1.56179,0.0125936,0.0,0.425007,4.31603,0.526411,1.3661,0.13186,inf,inf,inf,inf,0,1,0,1,1,0,1,0,2,0,0,0
29242282,0,0.0,0.0,0.0,0.0,0.331382,4.86379e-05,4.49719e-07,0.0,-0.0701798,-0.52371,-0.177425,-0.227107,0.00979517,9.05687e-05,0.0,1.21556,0.827282,-0.881868,-1.55814,0.0125936,0.0,0.44532,4.24682,0.524899,1.32811,0.131175,inf,inf,inf,inf,0,1,0,1,1,0,1,0,2,0,0,0
29341636,0,0.0,0.0,0.0,0.0,0.311963,4.86379e-05,4.49719e-07,0.0,-0.097847,-0.487469,-0.19726,-0.24312,0.00979517,9.05687e-05,0.0,-2.34439,1.08282,-1.15642,-1.55554,0.0125936,0.0,0.464739,4.37788,0.523452,1.35083,0.130739,inf,inf,inf,inf,0,1,0,1,1,0,1,0,2,0,0,0
29450851,0,0.0,0.0,0.0,0.0,0.286313,4.86379e-05,4.49719e-07,0.0,-0.119521,-0.446745,-0.219229,-0.26307,0.00979517,9.05687e-05,0.0,-1.4099,-0.867921,0.590277,-1.55178,0.0125936,0.0,0.490389,4.31072,0.523017,1.31287,0.130184,inf,inf,inf,inf,0,1,0,1,1,0,1,0,2,0,0,0
29540237,0,0.0,0.0,0.0,0.0,0.261492,4.86379e-05,4.49719e-07,0.0,-0.137214,-0.413382,-0.241343,-0.285414,0.00979517,9.05687e-05,0.0,-2.77434,-0.81371,0.40501,-1.54809,0.0125936,0.0,0.51521,4.42716,0.520588,1.33222,0.12956,inf,inf,inf,inf,0,1,0,1,1,0,1,0,2,0,0,0
29649696,0,0.0,0.0,0.0,0.0,0.229013,4.86379e-05,4.49719e-07,0.0,-0.141818,-0.359048,-0.269225,-0.312797,0.00979517,9.05687e-05,0.0,3.00192,0.0467972,0.788116,-1.54187,0.0125936,0.0,0.547689,4.35024,0.52016,1.29266,0.129055,inf,inf,inf,inf,0,1,0,1,1,0,1,0,2,0,0,0
29748807,0,0.0,0.0,0.0,0.0,0.200906,4.86379e-05,4.49719e-07,0.0,-0.16084,-0.318908,-0.291488,-0.331158,0.00979517,9.05687e-05,0.0,1.18275,0.838787,-0.735653,-1.53749,0.0125936,0.0,0.575796,4.47776,0.524597,1.31338,0.129483,inf,inf,inf,inf,0,1,0,1,1,0,1,0,2,0,0,0
29848126,0,0.0,0.0,0.0,0.0,0.171523,4.86379e-05,4.49719e-07,0.0,-0.174737,-0.285165,-0.311172,-0.346652,0.00979517,9.05687e-05,0.0,0.18333,0.405237,-0.738424,-1.5344,0.0125936,0.0,0.605179,4.60733,0.523196,1.33412,0.129026,inf,inf,inf,inf,0,1,0,1,1,0,1,0,2,0,0,0
29947444,0,0.0,0.0,0.0,0.0,0.137772,4.86379e-05,4.49719e-07,0.0,-0.18864,-0.254166,-0.328095,-0.362458,0.00979517,9.05687e-05,0.0,-1.71483,0.631839,-0.689979,-1.53218,0.0125936,0.0,0.63893,4.50472,0.521734,1.29051,0.128463,inf,inf,inf,inf,0,1,0,1,1,0,1,0,2,0,0,0
30046772,0,0.0,0.0,0.0,0.0,0.0991761,4.86379e-05,4.49719e-07,0.0,-0.195774,-0.216823,-0.341119,-0.377758,0.00979517,9.05687e-05,0.0,0.113915,0.639876,-0.729094,-1.53116,0.0125936,0.0,0.677526,4.63196,0.520357,1.3104,0.128021,inf,inf,inf,inf,0,1,0,1,1,0,1,0,2,0,0,0
30146083,0,0.0,0.0,0.0,0.0,0.0584524,4.86379e-05,4.49719e-07,0.0,-0.190719,-0.186328,-0.355165,-0.394531,0.00979517,9.05687e-05,0.0,2.61553,0.709957,-1.73869,-1.52982,0.0125936,0.0,0.71825,4.5223,0.518896,1.26615,0.127462,inf,inf,inf,inf,0,1,0,1,1,0,1,0,2,0,0,0
30240435,0,0.0,0.0,0.0,0.0,0.0212737,4.86379e-05,4.49719e-07,0.0,-0.192812,-0.168482,-0.360406,-0.399672,0.00979517,9.05687e-05,0.0,3.26255,-1.23287,1.55636,-1.52883,0.0125936,0.0,0.755428,4.63448,0.516539,1.2833,0.126912,inf,inf,inf,inf,0,1,0,1,1,0,1,0,2,0,0,0
30349684,0,0.0,0.0,0.0,0.0,-0.0235826,4.86379e-05,4.49719e-07,0.0,-0.193663,-0.209049,-0.37316,-0.412445,0.00979517,9.05687e-05,0.0,1.45212,-0.368247,0.21132,-1.52625,0.0125936,0.0,0.800285,4.53281,0.516109,1.24111,0.126538,inf,inf,inf,inf,0,1,0,1,1,0,1,0,2,0,0,0
30449133,0,0.0,0.0,0.0,0.0,-0.0687563,4.86379e-05,4.49719e-07,0.0,-0.19137,-0.234024,-0.380592,-0.422714,0.00979517,9.05687e-05,0.0,2.79037,-2.26637,3.18197,-1.52634,0.0125936,0.0,0.845458,4.65503,0.514801,1.25961,0.126127,inf,inf,inf,inf,0,1,0,1,1,0,1,0,2,0,0,0
30548321,0,0.0,0.0,0.0,0.0,-0.113726,4.86379e-05,4.49719e-07,0.0,-0.188996,-0.298377,-0.384289,-0.428434,0.00979517,9.05687e-05,0.0,1.34202,-1.84645,1.42661,-1.52756,0.0125936,0.0,0.890428,4.53608,0.519052,1.21559,0.126548,inf,inf,inf,inf,0,1,0,1,1,0,1,0,2,0,0,0
30647640,0,0.0,0.0,0.0,0.0,-0.157797,4.86379e-05,4.49719e-07,0.0,-0.173969,-0.375308,-0.381416,-0.426577,0.00979517,9.05687e-05,0.0,1.53679,-1.85213,2.97456,-1.52978,0.0125936,0.0,0.934499,4.65568,0.51773,1.23303,0.126332,inf,inf,inf,inf,0,1,0,1,1,0,1,0,2,0,0,0
30746959,0,0.0,0.0,0.0,0.0,-0.201712,4.86379e-05,4.49719e-07,0.0,-0.157862,-0.449635,-0.39802,-0.443482,0.00979517,9.05687e-05,0.0,5.0614,-1.4459,1.89888,-1.53249,0.0125936,0.0,0.978414,4.53289,0.51636,1.18927,0.126062,inf,inf,inf,inf,0,1,0,1,1,0,1,0,2,0,0,0
30846278,0,0.0,0.0,0.0,0.0,-0.248054,4.86379e-05,4.49719e-07,0.0,-0.164733,-0.49317,-0.435891,-0.482093,0.00979517,9.05687e-05,0.0,1.71964,-0.0270239,0.167007,-1.53665,0.0125936,0.0,1.02476,4.64979,0.515075,1.20602,0.12582,inf,inf,inf,inf,0,1,0,1,1,0,1,0,2,0,0,0
30945596,0,0.0,0.0,0.0,0.0,-0.302168,4.86379e-05,4.49719e-07,0.0,-0.171701,-0.527533,-0.461591,-0.51219,0.00979517,9.05687e-05,0.0,-1.61032,-2.17693,2.65704,-1.54133,0.0125936,0.0,1.07887,4.52422,0.513738,1.16298,0.125487,inf,inf,inf,inf,0,1,0,1,1,0,1,0,2,0,0,0
31049880,0,0.0,0.0,0.0,0.0,-0.35824,4.86379e-05,4.49719e-07,0.0,-0.162595,-0.524091,-0.42208,-0.476923,0.00979517,9.05687e-05,0.0,-2.94088,-1.72569,2.5834,-1.54465,0.0125936,0.0,1.13494,4.63843,0.512487,1.17926,0.125369,inf,inf,inf,inf,0,1,0,1,1,0,1,0,2,0,0,0
31149204,0,0.0,0.0,0.0,0.0,-0.408066,4.86379e-05,4.49719e-07,0.0,-0.149229,-0.49903,-0.369688,-0.429552,0.00979517,9.05687e-05,0.0,4.698,1.24447,0.3449,-1.54546,0.0125936,0.0,1.18477,4.51211,0.516729,1.13729,0.125837,inf,inf,inf,inf,0,1,0,1,1,0,1,0,2,0,0,0
31248704,0,0.0,0.0,0.0,0.0,-0.455871,4.86379e-05,4.49719e-07,0.0,-0.17815,-0.455628,-0.318365,-0.386041,0.00979517,9.05687e-05,0.0,-4.97235,0.774217,-0.452495,-1.54847,0.0125936,0.0,1.23257,4.62367,0.515491,1.15277,0.125547,inf,inf,inf,inf,0,1,0,1,1,0,1,0,2,0,0,0
31342871,0,0.0,0.0,0.0,0.0,-0.498329,4.86379e-05,4.49719e-07,0.0,-0.163646,-0.411452,-0.279184,-0.355308,0.00979517,9.05687e-05,0.0,-1.22252,1.11288,-0.889023,-1.55002,0.0125936,0.0,1.27503,4.48613,0.51321,1.11027,0.124922,inf,inf,inf,inf,0,1,0,1,1,0,1,0,2,0,0,0
31442189,0,0.0,0.0,0.0,0.0,-0.54239,4.86379e-05,4.49719e-07,0.0,-0.167483,-0.356334,-0.233614,-0.320161,0.00979517,9.05687e-05,0.0,-0.787096,-1.43235,2.93211,-1.55178,0.0125936,0.0,1.31909,4.59488,0.511994,1.12492,0.124594,inf,inf,inf,inf,0,1,0,1,1,0,1,0,2,0,0,0
31551440,0,0.0,0.0,0.0,0.0,-0.590221,4.86379e-05,4.49719e-07,0.0,-0.164087,-0.281783,-0.195966,-0.295845,0.00979517,9.05687e-05,0.0,3.08753,1.60758,-0.499305,-1.5526,0.0125936,0.0,1.36692,4.47824,0.511715,1.08661,0.124264,inf,inf,inf,inf,0,1,0,1,1,0,1,0,2,0,0,0
31640826,0,0.0,0.0,0.0,0.0,-0.623959,4.86379e-05,4.49719e-07,0.0,-0.184858,-0.238987,-0.146292,-0.254734,0.00979517,9.05687e-05,0.0,-1.19513,-0.818101,1.84533,-1.55343,0.0125936,0.0,1.40066,4.57382,0.509562,1.09937,0.123813,inf,inf,inf,inf,0,1,0,1,1,0,1,0,2,0,0,0
31750077,0,0.0,0.0,0.0,0.0,-0.65932,4.86379e-05,4.49719e-07,0.0,-0.176213,-0.199791,-0.108831,-0.225985,0.00979517,9.05687e-05,0.0,1.27111,0.474818,-0.250826,-1.55176,0.0125936,0.0,1.43602,4.45658,0.509274,1.06192,0.12354,inf,inf,inf,inf,0,1,0,1,1,0,1,0,2,0,0,0
31839470,0,0.0,0.0,0.0,0.0,-0.68671,4.86379e-05,4.49719e-07,0.0,-0.17574,-0.19894,-0.0635843,-0.188642,0.00979517,9.05687e-05,0.0,4.11031,-0.417195,2.23229,-1.55003,0.0125936,0.0,1.46341,4.54992,0.512576,1.07418,0.123902,inf,inf,inf,inf,0,1,0,1,1,0,1,0,2,0,0,0
31948714,0,0.0,0.0,0.0,0.0,-0.71448,4.86379e-05,4.49719e-07,0.0,-0.177523,-0.19835,-0.0093189,-0.142945,0.00979517,9.05687e-05,0.0,0.710733,-0.587843,-0.0477917,-1.54794,0.0125936,0.0,1.49118,4.43258,0.512292,1.0379,0.123608,inf,inf,inf,inf,0,1,0,1,1,0,1,0,2,0,0,0
32048139,0,0.0,0.0,0.0,0.0,-0.73126,4.86379e-05,4.49719e-07,0.0,-0.156334,-0.232381,0.0625566,-0.0762745,0.00979517,9.05687e-05,0.0,-2.42398,-0.663297,0.443782,-1.54645,0.0125936,0.0,1.50796,4.53379,0.511107,1.05105,0.12338,inf,inf,inf,inf,0,1,0,1,1,0,1,0,2,0,0,0
32142386,0,0.0,0.0,0.0,0.0,-0.738067,4.86379e-05,4.49719e-07,0.0,-0.135049,-0.280632,0.128626,-0.0124908,0.00979517,9.05687e-05,0.0,3.23872,-1.27993,2.69618,-1.54481,0.0125936,0.0,1.51477,4.3977,0.508914,1.01337,0.122933,inf,inf,inf,inf,0,1,0,1,1,0,1,0,2,0,0,0
32251636,0,0.0,0.0,0.0,0.0,-0.738624,4.86379e-05,4.49719e-07,0.0,-0.0802722,-0.338461,0.194366,0.0521036,0.00979517,9.05687e-05,0.0,-0.69739,-1.15298,1.29665,-1.54438,0.0125936,0.0,1.51533,4.50629,0.508721,1.02722,0.122883,inf,inf,inf,inf,0,1,0,1,1,0,1,0,2,0,0,0
32341191,0,0.0,0.0,0.0,0.0,-0.734667,4.86379e-05,4.49719e-07,0.0,-0.0414998,-0.398721,0.250282,0.106262,0.00979517,9.05687e-05,0.0,4.36608,-0.677994,1.17289,-1.54436,0.0125936,0.0,1.51137,4.3712,0.506586,0.991022,0.122516,inf,inf,inf,inf,0,1,0,1,1,0,1,0,2,0,0,0
32450274,0,0.0,0.0,0.0,0.0,-0.722452,4.86379e-05,4.49719e-07,0.0,-0.00755007,-0.462883,0.32327,0.177824,0.00979517,9.05687e-05,0.0,-0.160922,-1.93832,3.1795,-1.54422,0.0125936,0.0,1.49915,4.4772,0.506434,1.00444,0.122441,inf,inf,inf,inf,0,1,0,1,1,0,1,0,2,0,0,0
32539705,0,0.0,0.0,0.0,0.0,-0.706451,4.86379e-05,4.49719e-07,0.0,0.00798109,-0.472488,0.34787,0.202362,0.00979517,9.05687e-05,0.0,-1.97948,1.08922,-2.2847,-1.54123,0.0125936,0.0,1.48315,4.56508,0.509715,1.01554,0.12296,inf,inf,inf,inf,0,1,0,1,1,0,1,0,2,0,0,0
32648912,0,0.0,0.0,0.0,0.0,-0.684288,4.86379e-05,4.49719e-07,0.0,0.0454019,-0.487582,0.331905,0.18729,0.00979517,9.05687e-05,0.0,2.05078,-0.699728,-0.314823,-1.54064,0.0125936,0.0,1.46099,4.44687,0.504179,0.982353,0.122065,inf,inf,inf,inf,0,1,0,1,1,0,1,0,2,0,0,0
32748230,0,0.0,0.0,0.0,0.0,-0.67127,4.86379e-05,4.49719e-07,0.0,0.0203977,-0.483164,0.249163,0.104114,0.00979517,9.05687e-05,0.0,-4.77249,-1.0754,0.774204,-1.54125,0.0125936,0.0,1.44797,4.54224,0.508401,0.994446,0.12277,inf,inf,inf,inf,0,1,0,1,1,0,1,0,2,0,0,0
32847630,0,0.0,0.0,0.0,0.0,-0.669185,4.86379e-05,4.49719e-07,0.0,0.0338689,-0.43442,0.137606,-0.00893889,0.00979517,9.05687e-05,0.0,-3.79807,-0.0686833,-1.3662,-1.54264,0.0125936,0.0,1.44589,4.41571,0.507265,0.961851,0.122381,inf,inf,inf,inf,0,1,0,1,1,0,1,0,2,0,0,0
32946867,0,0.0,0.0,0.0,0.0,-0.678542,4.86379e-05,4.49719e-07,0.0,0.0158162,-0.390865,0.0342277,-0.114726,0.00979517,9.05687e-05,0.0,-0.79929,-0.0397964,-1.62335,-1.54527,0.0125936,0.0,1.45524,4.50884,0.506192,0.974199,0.122173,inf,inf,inf,inf,0,1,0,1,1,0,1,0,2,0,0,0
33046186,33041221,34.0355986,108.7573236,0.0,0.0,-0.698311,4.86379e-05,4.49719e-07,0.0,0.0355314,-0.34572,-0.0601936,-0.212261,0.00979517,9.05687e-05,0.0,3.56784,1.5917,-2.73477,-1.54681,0.0125936,420.693,1.47501,4.38402,0.505058,0.94322,0.121883,inf,inf,inf,inf,0,1,0,1,1,0,1,0,2,1,1,0
33145654,33041221,34.0355986,108.7573236,0.010565,-0.0911835,-0.732713,0.186228,0.559512,0.0,0.189825,-0.509464,-0.260167,-0.413595,0.167834,-0.187585,-0.113012,1.19365,1.30938,-1.08554,-1.51227,0.0375018,420.693,1.50941,0.785049,0.49942,0.176211,0.130431,inf,inf,inf,inf,1,1,1,1,2,0,2,1,3,1,1,0
33244823,33041221,34.0355986,108.7573236,0.0404694,-0.130318,-0.781205,0.186228,0.559512,0.0,0.181767,-0.525094,-0.341778,-0.493529,0.167834,-0.187585,-0.113012,-3.8149,-1.57197,0.499006,-1.51919,0.0375018,420.693,1.55791,0.785448,0.4899,0.182141,0.130981,inf,inf,inf,inf,1,1,1,1,2,0,2,1,3,1,1,0
33344208,33041221,34.0355986,108.7573236,0.071364,-0.182716,-0.835077,0.186228,0.559512,0.0,0.20062,-0.582267,-0.415081,-0.561675,0.167834,-0.187585,-0.113012,-0.277006,-1.82327,0.525087,-1.52528,0.0375018,420.693,1.61178,0.640567,0.481165,0.176421,0.126359,inf,inf,inf,inf,1,1,1,1,2,0,2,1,3,1,1,0
33443456,33041221,34.0355986,108.7573236,0.0996939,-0.243621,-0.892854,0.186228,0.559512,0.0,0.203926,-0.644586,-0.500777,-0.641146,0.167834,-0.187585,-0.113012,0.709191,-0.35344,-2.52728,-1.53167,0.0375018,420.693,1.66956,0.641649,0.477683,0.190399,0.127082,inf,inf,inf,inf,1,1,1,1,2,0,2,1,3,1,1,0
33542779,33041221,34.0355986,108.7573236,0.124683,-0.315026,-0.952409,0.186228,0.559512,0.0,0.225992,-0.732707,-0.565226,-0.695702,0.167834,-0.187585,-0.113012,4.89909,0.141557,-0.91535,-1.53506,0.0375018,420.693,1.72911,0.555101,0.470046,0.187399,0.123043,inf,inf,inf,inf,1,1,1,1,2,0,2,1,3,1,1,0
33642103,33041221,34.0355986,108.7573236,0.145789,-0.394831,-1.01147,0.186228,0.559512,0.0,0.206644,-0.756517,-0.642223,-0.757803,0.167834,-0.187585,-0.113012,1.84845,0.64898,-1.74502,-1.53792,0.0375018,420.693,1.78817,0.556977,0.463354,0.206019,0.123953,inf,inf,inf,inf,1,1,1,1,2,0,2,1,3,1,1,0
33746383,33041221,34.0355986,108.7573236,0.16696,-0.4833,-1.0775,0.186228,0.559512,0.0,0.197803,-0.813549,-0.690824,-0.790688,0.167834,-0.187585,-0.113012,2.96991,-0.514507,0.11795,-1.53706,0.0375018,420.693,1.8542,0.497717,0.456774,0.201752,0.120444,inf,inf,inf,inf,1,1,1,1,2,0,2,1,3,1,1,0
33845701,33041221,34.0355986,108.7573236,0.18693,-0.56936,-1.14205,0.186228,0.559512,0.0,0.188777,-0.792102,-0.690888,-0.77678,0.167834,-0.187585,-0.113012,3.30902,0.208901,0.504257,-1.53354,0.0375018,420.693,1.91875,0.500619,0.451235,0.222104,0.121499,inf,inf,inf,inf,1,1,1,1,2,0,2,1,3,1,1,0
33945132,33041221,34.0355986,108.7573236,0.209632,-0.651612,-1.20498,0.186228,0.559512,0.0,0.186483,-0.751197,-0.674851,-0.748429,0.167834,-0.187585,-0.113012,-0.363338,1.92778,-1.61257,-1.52972,0.0375018,420.693,1.98168,0.456583,0.449137,0.213354,0.11835,inf,inf,inf,inf,1,1,1,1,2,0,2,1,3,1,1,0
34044339,33041221,34.0355986,108.7573236,0.233798,-0.728623,-1.26833,0.186228,0.559512,0.0,0.176999,-0.706195,-0.647675,-0.712972,0.167834,-0.187585,-0.113012,-0.897665,0.0671842,1.01952,-1.52506,0.0375018,420.693,2.04503,0.460614,0.444436,0.232473,0.119433,inf,inf,inf,inf,1,1,1,1,2,0,2,1,3,1,1,0
34143690,33041221,34.0355986,108.7573236,0.255704,-0.803223,-1.3292,0.186228,0.559512,0.0,0.191097,-0.650769,-0.591566,-0.650453,0.167834,-0.187585,-0.113012,-1.14807,0.514123,0.0747622,-1.51982,0.0375018,420.693,2.1059,0.425829,0.439213,0.218589,0.116501,inf,inf,inf,inf,1,1,1,1,2,0,2,1,3,1,1,0
34247941,33041221,34.0355986,108.7573236,0.27737,-0.877629,-1.38701,0.186228,0.559512,0.0,0.1871,-0.612305,-0.504571,-0.55919,0.167834,-0.187585,-0.113012,-2.41154,-0.654631,1.67174,-1.51617,0.0375018,420.693,2.16371,0.430942,0.435324,0.236397,0.117676,inf,inf,inf,inf,1,1,1,1,2,0,2,1,3,1,1,0
34347261,33041221,34.0355986,108.7573236,0.304283,-0.944753,-1.43812,0.186228,0.559512,0.0,0.198497,-0.559611,-0.443085,-0.497797,0.167834,-0.187585,-0.113012,-3.12424,1.37054,-1.61593,-1.51179,0.0375018,420.693,2.21482,0.402195,0.430664,0.219458,0.114986,inf,inf,inf,inf,1,1,1,1,2,0,2,1,3,1,1,0
34446581,33041221,34.0355986,108.7573236,0.335645,-1.00728,-1.48487,0.186228,0.559512,0.0,0.221554,-0.52322,-0.370398,-0.427372,0.167834,-0.187585,-0.113012,2.49798,1.27014,0.0462948,-1.50898,0.0375018,420.693,2.26157,0.408268,0.427483,0.235929,0.116254,inf,inf,inf,inf,1,1,1,1,2,0,2,1,3,1,1,0
34545898,33041221,34.0355986,108.7573236,0.366024,-1.07385,-1.527,0.186228,0.559512,0.0,0.205419,-0.542924,-0.303606,-0.36433,0.167834,-0.187585,-0.113012,-3.34237,-1.60954,1.73437,-1.50858,0.0375018,420.693,2.30371,0.383648,0.426431,0.218281,0.113893,inf,inf,inf,inf,1,1,1,1,2,0,2,1,3,1,1,0
34645216,33041221,34.0355986,108.7573236,0.394295,-1.14277,-1.56266,0.186228,0.559512,0.0,0.227599,-0.547066,-0.240649,-0.304344,0.167834,-0.187585,-0.113012,-0.741957,-0.377363,1.15136,-1.50776,0.0375018,420.693,2.33936,0.390573,0.423806,0.233146,0.115245,inf,inf,inf,inf,1,1,1,1,2,0,2,1,3,1,1,0
34744615,33041221,34.0355986,108.7573236,0.408531,-1.2126,-1.59493,0.186228,0.559512,0.0,0.201175,-0.600237,-0.18718,-0.255613,0.167834,-0.187585,-0.113012,-0.953435,-0.107554,-0.265604,-1.50963,0.0375018,420.693,2.37164,0.368639,0.419912,0.214703,0.112951,inf,inf,inf,inf,1,1,1,1,2,0,2,1,3,1,1,0
34848820,33041221,34.0355986,108.7573236,0.413359,-1.29033,-1.62424,0.186228,0.559512,0.0,0.169832,-0.674702,-0.120661,-0.195439,0.167834,-0.187585,-0.113012,1.58197,-0.873266,0.803081,-1.51195,0.0375018,420.693,2.40094,0.376231,0.417829,0.228253,0.114405,inf,inf,inf,inf,1,1,1,1,2,0,2,1,3,1,1,0
34948149,33041221,34.0355986,108.7573236,0.422857,-1.37318,-1.64531,0.186228,0.559512,0.0,0.160614,-0.755667,-0.0634072,-0.142216,0.167834,-0.187585,-0.113012,0.618472,-1.15678,1.06805,-1.51434,0.0375018,420.693,2.42202,0.356511,0.414262,0.211076,0.112337,inf,inf,inf,inf,1,1,1,1,2,0,2,1,3,1,1,0
35047457,33041221,34.0355986,108.7573236,0.434915,-1.46318,-1.66057,0.186228,0.559512,0.0,0.155919,-0.846733,0.00341711,-0.0787483,0.167834,-0.187585,-0.113012,0.595952,-2.0817,3.0915,-1.5185,0.0375018,420.693,2.43727,0.364687,0.412664,0.223425,0.11387,inf,inf,inf,inf,1,1,1,1,2,0,2,1,3,1,1,0
35146777,33041221,34.0355986,108.7573236,0.444074,-1.56402,-1.66964,0.186228,0.559512,0.0,0.157124,-0.928193,0.0441585,-0.0406689,0.167834,-0.187585,-0.113012,2.23114,0.350966,-1.21996,-1.52064,0.0375018,420.693,2.44634,0.34656,0.409366,0.206376,0.111892,inf,inf,inf,inf,1,1,1,1,2,0,2,1,3,1,1,0
35246094,33041221,34.0355986,108.7573236,0.451652,-1.6725,-1.67391,0.186228,0.559512,0.0,0.129885,-1.01938,0.104754,0.0173127,0.167834,-0.187585,-0.113012,-2.33608,-2.78431,3.08987,-1.52357,0.0375018,420.693,2.45061,0.355188,0.410993,0.217686,0.113609,inf,inf,inf,inf,1,1,1,1,2,0,2,1,3,1,1,0
35340447,33041221,34.0355986,108.7573236,0.456255,-1.77832,-1.6738,0.186228,0.559512,0.0,0.123018,-1.07936,0.142823,0.0523567,0.167834,-0.187585,-0.113012,-1.51314,-0.793491,0.766952,-1.52708,0.0375018,420.693,2.4505,0.337481,0.407391,0.200558,0.111544,inf,inf,inf,inf,1,1,1,1,2,0,2,1,3,1,1,0
35449698,33041221,34.0355986,108.7573236,0.459232,-1.90543,-1.66767,0.186228,0.559512,0.0,0.0846121,-1.14616,0.204781,0.11219,0.167834,-0.187585,-0.113012,-3.96409,-0.478133,0.601386,-1.53316,0.0375018,420.693,2.44437,0.347293,0.407021,0.212071,0.113401,inf,inf,inf,inf,1,1,1,1,2,0,2,1,3,1,1,0
35539116,33041221,34.0355986,108.7573236,0.460638,-2.01219,-1.65727,0.186228,0.559512,0.0,0.0817219,-1.19695,0.255472,0.161908,0.167834,-0.187585,-0.113012,-1.10569,-0.975394,1.52714,-1.5379,0.0375018,420.693,2.43397,0.330416,0.403578,0.195762,0.111389,inf,inf,inf,inf,1,1,1,1,2,0,2,1,3,1,1,0
35648335,33041221,34.0355986,108.7573236,0.462336,-2.1464,-1.63726,0.186228,0.559512,0.0,0.0612851,-1.25218,0.334502,0.240103,0.167834,-0.187585,-0.113012,-6.4298,-1.14022,0.847029,-1.54311,0.0375018,420.693,2.41396,0.340514,0.403567,0.206389,0.113298,inf,inf,inf,inf,1,1,1,1,2,0,2,1,3,1,1,0
35747658,33041221,34.0355986,108.7573236,0.464935,-2.2732,-1.60578,0.186228,0.559512,0.0,0.0579608,-1.31345,0.395726,0.307121,0.167834,-0.187585,-0.113012,-0.0862129,-1.25318,1.97246,-1.54328,0.0375018,420.693,2.38248,0.325441,0.40075,0.191949,0.111526,inf,inf,inf,inf,1,1,1,1,2,0,2,1,3,1,1,0
35846973,33041221,34.0355986,108.7573236,0.468512,-2.40526,-1.56533,0.186228,0.559512,0.0,0.0513209,-1.36534,0.457636,0.376174,0.167834,-0.187585,-0.113012,-2.33303,-1.84205,1.74326,-1.54472,0.0375018,420.693,2.34203,0.334891,0.40055,0.200779,0.113251,inf,inf,inf,inf,1,1,1,1,2,0,2,1,3,1,1,0
35946291,33041221,34.0355986,108.7573236,0.463848,-2.53813,-1.51676,0.186228,0.559512,0.0,0.0253826,-1.40081,0.51602,0.442641,0.167834,-0.187585,-0.113012,-0.901037,-0.722533,-0.132011,-1.54437,0.0375018,420.693,2.29346,0.320376,0.397843,0.187072,0.111504,inf,inf,inf,inf,1,1,1,1,2,0,2,1,3,1,1,0
36045610,33041221,34.0355986,108.7573236,0.453732,-2.67245,-1.46621,0.186228,0.559512,0.0,-0.00372268,-1.43902,0.516015,0.448346,0.167834,-0.187585,-0.113012,-3.96543,-0.535458,-0.194085,-1.54454,0.0375018,420.693,2.24291,0.329956,0.400507,0.195351,0.113448,inf,inf,inf,inf,1,1,1,1,2,0,2,1,3,1,1,0
36144928,33041221,34.0355986,108.7573236,0.436103,-2.81227,-1.42019,0.186228,0.559512,0.0,-0.0249073,-1.46298,0.4821,0.416806,0.167834,-0.187585,-0.113012,-0.727917,-1.38137,1.58551,-1.54337,0.0375018,420.693,2.19689,0.316018,0.397851,0.182503,0.111736,inf,inf,inf,inf,1,1,1,1,2,0,2,1,3,1,1,0
36244247,33041221,34.0355986,108.7573236,0.413287,-2.95529,-1.38016,0.186228,0.559512,0.0,-0.0634906,-1.47715,0.428655,0.364038,0.167834,-0.187585,-0.113012,-1.68981,-1.08542,0.89458,-1.54204,0.0375018,420.693,2.15686,0.325697,0.398157,0.190707,0.113593,inf,inf,inf,inf,1,1,1,1,2,0,2,1,3,1,1,0
36343628,33041221,34.0355986,108.7573236,0.398209,-3.09476,-1.34628,0.186228,0.559512,0.0,-0.0694118,-1.49828,0.386917,0.320707,0.167834,-0.187585,-0.113012,0.830099,1.11895,-3.46283,-1.54245,0.0375018,420.693,2.12298,0.312274,0.395572,0.178984,0.111924,inf,inf,inf,inf,1,1,1,1,2,0,2,1,3,1,1,0
36442885,33041221,34.0355986,108.7573236,0.387292,-3.23509,-1.31833,0.186228,0.559512,0.0,-0.106089,-1.51442,0.359692,0.289649,0.167834,-0.187585,-0.113012,-4.67511,1.01469,-1.06651,-1.54266,0.0375018,420.693,2.09503,0.322042,0.39609,0.186935,0.113858,inf,inf,inf,inf,1,1,1,1,2,0,2,1,3,1,1,0
36542208,33041221,34.0355986,108.7573236,0.384104,-3.37554,-1.29557,0.186228,0.559512,0.0,-0.084339,-1.53226,0.325635,0.250337,0.167834,-0.187585,-0.113012,-1.32368,-0.763232,-0.26203,-1.53978,0.0375018,420.693,2.07227,0.309014,0.393564,0.175705,0.112172,inf,inf,inf,inf,1,1,1,1,2,0,2,1,3,1,1,0
36641669,33041221,34.0355986,108.7573236,0.386673,-3.52018,-1.2765,0.186228,0.559512,0.0,-0.035961,-1.56772,0.293679,0.213974,0.167834,-0.187585,-0.113012,2.51271,-1.71324,1.39816,-1.53491,0.0375018,420.693,2.0532,0.318838,0.396799,0.183195,0.114319,inf,inf,inf,inf,1,1,1,1,2,0,2,1,3,1,1,0
36745807,33041221,34.0355986,108.7573236,0.393461,-3.6779,-1.26155,0.186228,0.559512,0.0,-0.00201914,-1.60046,0.214601,0.131574,0.167834,-0.187585,-0.113012,0.00907754,0.0891534,-2.06221,-1.5346,0.0375018,420.693,2.03826,0.306162,0.394272,0.172445,0.112609,inf,inf,inf,inf,1,1,1,1,2,0,2,1,3,1,1,0
36845125,33041221,34.0355986,108.7573236,0.401019,-3.83202,-1.25632,0.186228,0.559512,0.0,0.0072614,-1.59661,0.133012,0.0460494,0.167834,-0.187585,-0.113012,4.46431,2.44658,-3.14871,-1.53199,0.0375018,420.693,2.03302,0.316011,0.395167,0.180051,0.114624,inf,inf,inf,inf,1,1,1,1,2,0,2,1,3,1,1,0
36944444,33041221,34.0355986,108.7573236,0.40994,-3.98149,-1.25944,0.186228,0.559512,0.0,0.0428982,-1.58627,0.0681985,-0.0232242,0.167834,-0.187585,-0.113012,0.341091,0.846825,-1.79547,-1.52873,0.0375018,420.693,2.03614,0.303669,0.392683,0.17002,0.112974,inf,inf,inf,inf,1,1,1,1,2,0,2,1,3,1,1,0
37043805,33041221,34.0355986,108.7573236,0.418344,-4.12863,-1.26697,0.186228,0.559512,0.0,0.0290803,-1.55891,-0.000938272,-0.0938424,0.167834,-0.187585,-0.113012,-1.44176,1.89478,-2.65835,-1.52528,0.0375018,420.693,2.04367,0.313541,0.393745,0.177155,0.114971,inf,inf,inf,inf,1,1,1,1,2,0,2,1,3,1,1,0
37143122,33041221,34.0355986,108.7573236,0.428554,-4.27241,-1.27526,0.186228,0.559512,0.0,0.0360949,-1.50824,-0.0654952,-0.153721,0.167834,-0.187585,-0.113012,1.79889,1.64673,-2.32768,-1.52207,0.0375018,420.693,2.05196,0.301492,0.391285,0.16748,0.113257,inf,inf,inf,inf,1,1,1,1,2,0,2,1,3,1,1,0
37247366,33041221,34.0355986,108.7573236,0.438606,-4.41895,-1.28772,0.186228,0.559512,0.0,0.027394,-1.45784,-0.122166,-0.203916,0.167834,-0.187585,-0.113012,1.4509,-0.438948,0.265887,-1.51843,0.0375018,420.693,2.06442,0.311359,0.392483,0.174411,0.115214,inf,inf,inf,inf,1,1,1,1,2,0,2,1,3,1,1,0
37346685,33041221,34.0355986,108.7573236,0.450226,-4.55573,-1.3057,0.186228,0.559512,0.0,0.0431015,-1.3982,-0.184093,-0.259751,0.167834,-0.187585,-0.113012,4.82345,1.0593,-0.309803,-1.51565,0.0375018,420.693,2.0824,0.299571,0.390038,0.16516,0.113504,inf,inf,inf,inf,1,1,1,1,2,0,2,1,3,1,1,0
37446137,33041221,34.0355986,108.7573236,0.461955,-4.68996,-1.32744,0.186228,0.559512,0.0,0.0513955,-1.35506,-0.213197,-0.282781,0.167834,-0.187585,-0.113012,5.59907,2.08407,-1.50622,-1.51554,0.0375018,420.693,2.10415,0.309426,0.393837,0.172181,0.115721,inf,inf,inf,inf,1,1,1,1,2,0,2,1,3,1,1,0
37545347,33041221,34.0355986,108.7573236,0.471253,-4.82149,-1.34865,0.186228,0.559512,0.0,0.0389829,-1.31471,-0.218001,-0.280787,0.167834,-0.187585,-0.113012,3.12111,1.26772,-1.43957,-1.51764,0.0375018,420.693,2.12535,0.29783,0.391362,0.163222,0.113953,inf,inf,inf,inf,1,1,1,1,2,0,2,1,3,1,1,0
37644641,33041221,34.0355986,108.7573236,0.47833,-4.94976,-1.37259,0.186228,0.559512,0.0,0.0508832,-1.27834,-0.229214,-0.287647,0.167834,-0.187585,-0.113012,1.93668,-0.0169326,0.125277,-1.52061,0.0375018,420.693,2.14929,0.307651,0.392825,0.169541,0.115877,inf,inf,inf,inf,1,1,1,1,2,0,2,1,3,1,1,0
37748926,33041221,34.0355986,108.7573236,0.493938,-5.08249,-1.3967,0.186228,0.559512,0.0,0.101103,-1.25392,-0.245383,-0.297432,0.167834,-0.187585,-0.113012,-3.77558,-2.3532,0.898216,-1.5254,0.0375018,420.693,2.1734,0.296275,0.390338,0.160756,0.114072,inf,inf,inf,inf,1,1,1,1,2,0,2,1,3,1,1,0
37848248,33041221,34.0355986,108.7573236,0.512249,-5.20585,-1.42257,0.186228,0.559512,0.0,0.111983,-1.21075,-0.284187,-0.330409,0.167834,-0.187585,-0.113012,-3.6212,-1.07045,-0.513097,-1.52866,0.0375018,420.693,2.19927,0.306044,0.391872,0.166828,0.115937,inf,inf,inf,inf,1,1,1,1,2,0,2,1,3,1,1,0
37947560,33041221,34.0355986,108.7573236,0.534602,-5.32516,-1.44864,0.186228,0.559512,0.0,0.164598,-1.17651,-0.308454,-0.346932,0.167834,-0.187585,-0.113012,-4.87714,-1.44906,-0.514711,-1.53004,0.0375018,420.693,2.22535,0.294868,0.389389,0.158907,0.114163,inf,inf,inf,inf,1,1,1,1,2,0,2,1,3,1,1,0
38046889,33041221,34.0355986,108.7573236,0.55886,-5.44096,-1.47604,0.186228,0.559512,0.0,0.189418,-1.14283,-0.3311,-0.361765,0.167834,-0.187585,-0.113012,-2.29821,-0.763672,-0.0406226,-1.53016,0.0375018,420.693,2.25274,0.304595,0.393487,0.165109,0.116344,inf,inf,inf,inf,1,1,1,1,2,0,2,1,3,1,1,0
38146206,33041221,34.0355986,108.7573236,0.583034,-5.55029,-1.50763,0.186228,0.559512,0.0,0.222714,-1.09767,-0.344243,-0.370221,0.167834,-0.187585,-0.113012,1.89866,-0.358927,1.91889,-1.53001,0.0375018,420.693,2.28433,0.293687,0.390968,0.157225,0.114483,inf,inf,inf,inf,1,1,1,1,2,0,2,1,3,1,1,0
38245611,33041221,34.0355986,108.7573236,0.605229,-5.65456,-1.54223,0.186228,0.559512,0.0,0.209324,-1.04812,-0.336163,-0.360053,0.167834,-0.187585,-0.113012,3.94873,0.955747,0.710674,-1.52952,0.0375018,420.693,2.31894,0.303376,0.392708,0.163229,0.116353,inf,inf,inf,inf,1,1,1,1,2,0,2,1,3,1,1,0
38339872,33041221,34.0355986,108.7573236,0.625742,-5.75398,-1.57741,0.186228,0.559512,0.0,0.191614,-1.04393,-0.280621,-0.309159,0.167834,-0.187585,-0.113012,0.208966,0.515188,-0.65279,-1.52812,0.0375018,420.693,2.35412,0.291675,0.389528,0.154998,0.114227,inf,inf,inf,inf,1,1,1,1,2,0,2,1,3,1,1,0
38449124,33041221,34.0355986,108.7573236,0.647272,-5.86686,-1.6111,0.186228,0.559512,0.0,0.164546,-0.999399,-0.191702,-0.224922,0.167834,-0.187585,-0.113012,1.04642,-2.52514,4.51771,-1.52583,0.0375018,420.693,2.3878,0.302242,0.391985,0.161452,0.116327,inf,inf,inf,inf,1,1,1,1,2,0,2,1,3,1,1,0
38548474,33041221,34.0355986,108.7573236,0.666113,-5.97023,-1.63311,0.186228,0.559512,0.0,0.143241,-0.980235,-0.129828,-0.165379,0.167834,-0.187585,-0.113012,-0.188,0.642246,-0.325543,-1.52224,0.0375018,420.693,2.40982,0.291587,0.389465,0.153523,0.114364,inf,inf,inf,inf,1,1,1,1,2,0,2,1,3,1,1,0
38647761,33041221,34.0355986,108.7573236,0.682625,-6.07299,-1.6456,0.186228,0.559512,0.0,0.122019,-0.958001,-0.0437405,-0.0794531,0.167834,-0.187585,-0.113012,-1.87505,0.367855,0.256869,-1.51726,0.0375018,420.693,2.42231,0.301164,0.391316,0.158656,0.116148,inf,inf,inf,inf,1,1,1,1,2,0,2,1,3,1,1,0
38747080,33041221,34.0355986,108.7573236,0.695266,-6.16709,-1.64644,0.186228,0.559512,0.0,0.125491,-0.916557,0.0447287,0.0120486,0.167834,-0.187585,-0.113012,6.11523,1.66283,0.538211,-1.51319,0.0375018,420.693,2.42314,0.290537,0.388781,0.150935,0.114109,inf,inf,inf,inf,1,1,1,1,2,0,2,1,3,1,1,0
38846398,33041221,34.0355986,108.7573236,0.706431,-6.25599,-1.63658,0.186228,0.559512,0.0,0.136949,-0.911915,0.131801,0.103802,0.167834,-0.187585,-0.113012,2.93875,0.416817,0.609352,-1.51073,0.0375018,420.693,2.41328,0.300026,0.393135,0.155967,0.116104,inf,inf,inf,inf,1,1,1,1,2,0,2,1,3,1,1,0
38945716,33041221,34.0355986,108.7573236,0.722217,-6.34551,-1.61716,0.186228,0.559512,0.0,0.140405,-0.894198,0.207936,0.185357,0.167834,-0.187585,-0.113012,2.84922,-0.229294,2.30869,-1.5118,0.0375018,420.693,2.39387,0.289639,0.390557,0.148817,0.114098,inf,inf,inf,inf,1,1,1,1,2,0,2,1,3,1,1,0
39045146,33041221,34.0355986,108.7573236,0.737489,-6.43287,-1.59201,0.186228,0.559512,0.0,0.121844,-0.863894,0.261347,0.242919,0.167834,-0.187585,-0.113012,-2.53268,0.651632,-1.10335,-1.5116,0.0375018,420.693,2.36871,0.299055,0.392519,0.153739,0.115765,inf,inf,inf,inf,1,1,1,1,2,0,2,1,3,1,1,0
39144354,33041221,34.0355986,108.7573236,0.757042,-6.51833,-1.55746,0.186228,0.559512,0.0,0.167172,-0.846856,0.321407,0.309866,0.167834,-0.187585,-0.113012,5.14712,-0.360754,2.20988,-1.51301,0.0375018,420.693,2.33416,0.288741,0.389936,0.14701,0.113822,inf,inf,inf,inf,1,1,1,1,2,0,2,1,3,1,1,0
39243673,33041221,34.0355986,108.7573236,0.780151,-6.60267,-1.52068,0.186228,0.559512,0.0,0.16048,-0.827174,0.316461,0.310886,0.167834,-0.187585,-0.113012,-4.32825,-1.25656,0.85991,-1.51864,0.0375018,420.693,2.29738,0.298091,0.391919,0.152079,0.115587,inf,inf,inf,inf,1,1,1,1,2,0,2,1,3,1,1,0
39342995,33041221,34.0355986,108.7573236,0.79692,-6.68075,-1.49337,0.186228,0.559512,0.0,0.130544,-0.772797,0.258912,0.252338,0.167834,-0.187585,-0.113012,-6.7785,-0.882484,0.0969501,-1.52188,0.0375018,420.693,2.27007,0.287784,0.391745,0.145747,0.113811,inf,inf,inf,inf,1,1,1,1,2,0,2,1,3,1,1,0
39442310,33041221,34.0355986,108.7573236,0.809837,-6.7532,-1.47542,0.186228,0.559512,0.0,0.126405,-0.724286,0.204059,0.193007,0.167834,-0.187585,-0.113012,3.69215,-0.225568,1.27764,-1.52369,0.0375018,420.693,2.25212,0.297075,0.393775,0.151483,0.115598,inf,inf,inf,inf,1,1,1,1,2,0,2,1,3,1,1,0
39541629,33041221,34.0355986,108.7573236,0.823764,-6.82028,-1.46005,0.186228,0.559512,0.0,0.106458,-0.666521,0.160713,0.148155,0.167834,-0.187585,-0.113012,0.365814,0.604245,-0.346307,-1.52411,0.0375018,420.693,2.23675,0.286797,0.391099,0.145746,0.113639,inf,inf,inf,inf,1,1,1,1,2,0,2,1,3,1,1,0
39645915,33041221,34.0355986,108.7573236,0.83939,-6.88492,-1.44911,0.186228,0.559512,0.0,0.0939465,-0.612189,0.117931,0.103185,0.167834,-0.187585,-0.113012,1.70297,-0.849822,1.11238,-1.52446,0.0375018,420.693,2.22581,0.296051,0.393139,0.151747,0.115416,inf,inf,inf,inf,1,1,1,1,2,0,2,1,3,1,1,0
39745233,33041221,34.0355986,108.7573236,0.851926,-6.9451,-1.43752,0.186228,0.559512,0.0,0.111516,-0.601224,0.0808898,0.0696064,0.167834,-0.187585,-0.113012,0.439123,0.0447798,-0.253357,-1.52411,0.0375018,420.693,2.21422,0.285965,0.390463,0.146134,0.11347,inf,inf,inf,inf,1,1,1,1,2,0,2,1,3,1,1,0
39844628,33041221,34.0355986,108.7573236,0.863437,-7.00443,-1.42631,0.186228,0.559512,0.0,0.105324,-0.579924,0.0348962,0.0300042,0.167834,-0.187585,-0.113012,-1.13658,-0.590511,0.0528496,-1.52639,0.0375018,420.693,2.20301,0.295206,0.392527,0.152467,0.115231,inf,inf,inf,inf,1,1,1,1,2,0,2,1,3,1,1,0
39948836,33041221,34.0355986,108.7573236,0.880124,-7.06384,-1.41378,0.186228,0.559512,0.0,0.139156,-0.607531,-0.00189255,0.00408896,0.167834,-0.187585,-0.113012,-0.471648,-1.18662,0.195204,-1.52821,0.0375018,420.693,2.19048,0.285176,0.389859,0.146802,0.113263,inf,inf,inf,inf,1,1,1,1,2,0,2,1,3,1,1,0
40048154,33041221,34.0355986,108.7573236,0.899053,-7.12158,-1.40344,0.186228,0.559512,0.0,0.144809,-0.623479,-0.0412107,-0.0245585,0.167834,-0.187585,-0.113012,0.51335,0.719446,-1.3564,-1.52777,0.0375018,420.693,2.18014,0.29441,0.394423,0.152868,0.115279,inf,inf,inf,inf,1,1,1,1,2,0,2,1,3,1,1,0
40147652,33041221,34.0355986,108.7573236,0.918882,-7.17825,-1.39722,0.186228,0.559512,0.0,0.154585,-0.641877,-0.0780559,-0.0522799,0.167834,-0.187585,-0.113012,-0.00790129,-0.409858,-0.913621,-1.52715,0.0375018,420.693,2.17392,0.284554,0.391718,0.147541,0.113322,inf,inf,inf,inf,1,1,1,1,2,0,2,1,3,1,1,0
40246792,33041221,34.0355986,108.7573236,0.939072,-7.23671,-1.39257,0.186228,0.559512,0.0,0.157045,-0.658741,-0.104523,-0.0690627,0.167834,-0.187585,-0.113012,-0.151498,-0.590829,0.901664,-1.52571,0.0375018,420.693,2.16927,0.293802,0.393856,0.153715,0.115044,inf,inf,inf,inf,1,1,1,1,2,0,2,1,3,1,1,0
40346114,33041221,34.0355986,108.7573236,0.957444,-7.29529,-1.39102,0.186228,0.559512,0.0,0.140133,-0.660675,-0.131801,-0.0875027,0.167834,-0.187585,-0.113012,1.17192,-1.26717,1.77083,-1.52438,0.0375018,420.693,2.16772,0.283805,0.39114,0.14769,0.113009,inf,inf,inf,inf,1,1,1,1,2,0,2,1,3,1,1,0
40445429,33041221,34.0355986,108.7573236,0.973815,-7.35293,-1.3945,0.186228,0.559512,0.0,0.135135,-0.646637,-0.157728,-0.107929,0.167834,-0.187585,-0.113012,3.89385,-0.0575083,1.65869,-1.52215,0.0375018,420.693,2.1712,0.293038,0.393266,0.153769,0.114666,inf,inf,inf,inf,1,1,1,1,2,0,2,1,3,1,1,0
40544748,33041221,34.0355986,108.7573236,0.989883,-7.41385,-1.40415,0.186228,0.559512,0.0,0.102868,-0.635744,-0.18073,-0.129905,0.167834,-0.187585,-0.113012,1.9862,-0.630022,1.43125,-1.51993,0.0375018,420.693,2.18085,0.283217,0.390561,0.147903,0.112686,inf,inf,inf,inf,1,1,1,1,2,0,2,1,3,1,1,0
40644067,33041221,34.0355986,108.7573236,1.00437,-7.47576,-1.416,0.186228,0.559512,0.0,0.081836,-0.610406,-0.207364,-0.155768,0.167834,-0.187585,-0.113012,0.235818,0.488728,-0.889881,-1.51779,0.0375018,420.693,2.1927,0.292451,0.392684,0.153935,0.11432,inf,inf,inf,inf,1,1,1,1,2,0,2,1,3,1,1,0
40748390,33041221,34.0355986,108.7573236,1.01863,-7.53991,-1.43646,0.186228,0.559512,0.0,0.0654848,-0.58176,-0.229713,-0.182547,0.167834,-0.187585,-0.113012,2.84,0.66434,-0.527201,-1.51688,0.0375018,420.693,2.21316,0.282646,0.392425,0.148011,0.112605,inf,inf,inf,inf,1,1,1,1,2,0,2,1,3,1,1,0
40847671,33041221,34.0355986,108.7573236,1.03112,-7.60137,-1.46004,0.186228,0.559512,0.0,0.0458312,-0.607205,-0.252057,-0.21047,0.167834,-0.187585,-0.113012,0.423392,0.414107,-1.55169,-1.51659,0.0375018,420.693,2.23675,0.291884,0.39458,0.154095,0.114229,inf,inf,inf,inf,1,1,1,1,2,0,2,1,3,1,1,0
40947135,33041221,34.0355986,108.7573236,1.04009,-7.66337,-1.48621,0.186228,0.559512,0.0,0.0389985,-0.626005,-0.264227,-0.228181,0.167834,-0.187585,-0.113012,1.78643,-0.96651,0.665661,-1.51405,0.0375018,420.693,2.26291,0.282213,0.391849,0.148645,0.112282,inf,inf,inf,inf,1,1,1,1,2,0,2,1,3,1,1,0
41046308,33041221,34.0355986,108.7573236,1.04774,-7.72826,-1.51334,0.186228,0.559512,0.0,0.0371078,-0.68865,-0.273726,-0.241611,0.167834,-0.187585,-0.113012,0.450706,-1.28716,1.50271,-1.51137,0.0375018,420.693,2.29004,0.291481,0.394004,0.154571,0.113843,inf,inf,inf,inf,1,1,1,1,2,0,2,1,3,1,1,0
41145652,33041221,34.0355986,108.7573236,1.05277,-7.80625,-1.53867,0.186228,0.559512,0.0,0.0207963,-0.774844,-0.288,-0.256252,0.167834,-0.187585,-0.113012,-2.45303,-1.83424,1.11843,-1.50948,0.0375018,420.693,2.31537,0.281795,0.391278,0.148599,0.11189,inf,inf,inf,inf,1,1,1,1,2,0,2,1,3,1,1,0
41249913,33041221,34.0355986,108.7573236,1.05698,-7.89809,-1.56308,0.186228,0.559512,0.0,0.0297216,-0.862957,-0.294052,-0.259895,0.167834,-0.187585,-0.113012,-0.682868,-0.12421,-1.32134,-1.50914,0.0375018,420.693,2.33978,0.291076,0.393419,0.154544,0.11344,inf,inf,inf,inf,1,1,1,1,2,0,2,1,3,1,1,0
41349230,33041221,34.0355986,108.7573236,1.05415,-7.99486,-1.58344,0.186228,0.559512,0.0,0.0322585,-0.954974,-0.290081,-0.25102,0.167834,-0.187585,-0.113012,-1.03908,-2.27225,1.96178,-1.51041,0.0375018,420.693,2.36014,0.281314,0.390681,0.148419,0.111459,inf,inf,inf,inf,1,1,1,1,2,0,2,1,3,1,1,0
41448552,33041221,34.0355986,108.7573236,1.04779,-8.0986,-1.60408,0.186228,0.559512,0.0,0.0125027,-1.02142,-0.301635,-0.257641,0.167834,-0.187585,-0.113012,-2.12336,-1.81176,2.14397,-1.51262,0.0375018,420.693,2.38079,0.290601,0.395294,0.154801,0.113289,inf,inf,inf,inf,1,1,1,1,2,0,2,1,3,1,1,0
41547868,33041221,34.0355986,108.7573236,1.04631,-8.20423,-1.63045,0.186228,0.559512,0.0,0.0154932,-1.07804,-0.310539,-0.26715,0.167834,-0.187585,-0.113012,-0.868629,-1.59533,0.735691,-1.51373,0.0375018,420.693,2.40716,0.280932,0.392523,0.148724,0.111317,inf,inf,inf,inf,1,1,1,1,2,0,2,1,3,1,1,0
41647188,33041221,34.0355986,108.7573236,1.04657,-8.31373,-1.65969,0.186228,0.559512,0.0,0.00408302,-1.12006,-0.327962,-0.287039,0.167834,-0.187585,-0.113012,-2.33352,0.0545459,-1.01545,-1.51518,0.0375018,420.693,2.43639,0.29024,0.394661,0.154734,0.112833,inf,inf,inf,inf,1,1,1,1,2,0,2,1,3,1,1,0
41746611,33041221,34.0355986,108.7573236,1.04564,-8.42922,-1.70259,0.186228,0.559512,0.0,-0.00525878,-1.11571,-0.354635,-0.327644,0.167834,-0.187585,-0.113012,-0.36758,0.403476,-0.982686,-1.51693,0.0375018,420.693,2.47929,0.280548,0.391891,0.148699,0.110886,inf,inf,inf,inf,1,1,1,1,2,0,2,1,3,1,1,0
41845825,33041221,34.0355986,108.7573236,1.04351,-8.54541,-1.74875,0.186228,0.559512,0.0,-0.0230981,-1.1432,-0.370977,-0.356828,0.167834,-0.187585,-0.113012,-1.97153,-0.226633,0.0351981,-1.51863,0.0375018,420.693,2.52545,0.289875,0.393992,0.154715,0.112387,inf,inf,inf,inf,1,1,1,1,2,0,2,1,3,1,1,0
41945148,33041221,34.0355986,108.7573236,1.04334,-8.65438,-1.79425,0.186228,0.559512,0.0,-0.0394299,-1.11421,-0.38265,-0.377149,0.167834,-0.187585,-0.113012,-3.8239,-2.00653,2.61133,-1.52061,0.0375018,420.693,2.57095,0.280096,0.393684,0.148576,0.110743,inf,inf,inf,inf,1,1,1,1,2,0,2,1,3,1,1,0
42044462,33041221,34.0355986,108.7573236,1.04327,-8.75719,-1.83916,0.186228,0.559512,0.0,-0.0252969,-1.09612,-0.404383,-0.403702,0.167834,-0.187585,-0.113012,-1.85867,-0.356794,0.205523,-1.52152,0.0375018,420.693,2.61586,0.28943,0.395805,0.15445,0.112202,inf,inf,inf,inf,1,1,1,1,2,0,2,1,3,1,1,0
42143781,33041221,34.0355986,108.7573236,1.04914,-8.86865,-1.88109,0.186228,0.559512,0.0,0.029511,-1.09754,-0.412925,-0.412867,0.167834,-0.187585,-0.113012,0.620341,-0.290277,-0.697075,-1.52562,0.0375018,420.693,2.65779,0.279647,0.392987,0.148303,0.110273,inf,inf,inf,inf,1,1,1,1,2,0,2,1,3,1,1,0
42243146,33041221,34.0355986,108.7573236,1.05865,-8.98324,-1.92256,0.186228,0.559512,0.0,0.058897,-1.0888,-0.429219,-0.428573,0.167834,-0.187585,-0.113012,-2.9599,0.665284,-2.09187,-1.52905,0.0375018,420.693,2.69926,0.288988,0.395076,0.154281,0.111706,inf,inf,inf,inf,1,1,1,1,2,0,2,1,3,1,1,0
42347384,33041221,34.0355986,108.7573236,1.06902,-9.10175,-1.95728,0.186228,0.559512,0.0,0.116077,-1.1058,-0.43203,-0.421027,0.167834,-0.187585,-0.113012,-0.579542,-0.853319,0.367147,-1.52842,0.0375018,420.693,2.73398,0.279199,0.392276,0.148073,0.109806,inf,inf,inf,inf,1,1,1,1,2,0,2,1,3,1,1,0
42446703,33041221,34.0355986,108.7573236,1.07965,-9.2132,-1.98768,0.186228,0.559512,0.0,0.144407,-1.09685,-0.434866,-0.412212,0.167834,-0.187585,-0.113012,0.616542,-1.23026,1.04744,-1.52487,0.0375018,420.693,2.76438,0.288545,0.394343,0.153994,0.111264,inf,inf,inf,inf,1,1,1,1,2,0,2,1,3,1,1,0
42546092,33041221,34.0355986,108.7573236,1.09322,-9.31272,-2.019,0.186228,0.559512,0.0,0.17791,-1.06736,-0.465548,-0.432535,0.167834,-0.187585,-0.113012,2.09331,2.18332,-2.97191,-1.52642,0.0375018,420.693,2.79571,0.278743,0.391569,0.148172,0.109404,inf,inf,inf,inf,1,1,1,1,2,0,2,1,3,1,1,0
42645341,33041221,34.0355986,108.7573236,1.10514,-9.40424,-2.0535,0.186228,0.559512,0.0,0.134268,-1.01947,-0.467005,-0.426608,0.167834,-0.187585,-0.113012,0.96195,2.36073,-1.4838,-1.5292,0.0375018,420.693,2.8302,0.288103,0.396146,0.154054,0.111106,inf,inf,inf,inf,1,1,1,1,2,0,2,1,3,1,1,0
42744659,33041221,34.0355986,108.7573236,1.11827,-9.48904,-2.08618,0.186228,0.559512,0.0,0.126216,-0.960637,-0.424565,-0.377276,0.167834,-0.187585,-0.113012,3.80132,-1.14898,2.15695,-1.53089,0.0375018,420.693,2.86288,0.278329,0.393338,0.148021,0.109224,inf,inf,inf,inf,1,1,1,1,2,0,2,1,3,1,1,0
42848943,33041221,34.0355986,108.7573236,1.13114,-9.5732,-2.11932,0.186228,0.559512,0.0,0.0830855,-0.897341,-0.385104,-0.334059,0.167834,-0.187585,-0.113012,-2.82398,0.224888,0.63144,-1.52929,0.0375018,420.693,2.89603,0.287699,0.395408,0.153666,0.110632,inf,inf,inf,inf,1,1,1,1,2,0,2,1,3,1,1,0
42948267,33041221,34.0355986,108.7573236,1.13485,-9.65485,-2.14995,0.186228,0.559512,0.0,0.0465017,-0.842028,-0.341993,-0.291315,0.167834,-0.187585,-0.113012,-0.348181,0.759815,0.309059,-1.52695,0.0375018,420.693,2.92665,0.277922,0.392621,0.14711,0.108744,inf,inf,inf,inf,1,1,1,1,2,0,2,1,3,1,1,0
43047582,33041221,34.0355986,108.7573236,1.13452,-9.7353,-2.17922,0.186228,0.559512,0.0,0.0406719,-0.791597,-0.303392,-0.255928,0.167834,-0.187585,-0.113012,2.95635,1.6498,-0.833841,-1.52483,0.0375018,420.693,2.95592,0.287278,0.394664,0.152893,0.110143,inf,inf,inf,inf,1,1,1,1,2,0,2,1,3,1,1,0
43146900,33041221,34.0355986,108.7573236,1.13663,-9.82026,-2.20236,0.186228,0.559512,0.0,0.0114173,-0.76987,-0.253339,-0.207141,0.167834,-0.187585,-0.113012,2.28022,0.192561,1.09566,-1.52343,0.0375018,420.693,2.97906,0.277623,0.391887,0.146479,0.108293,inf,inf,inf,inf,1,1,1,1,2,0,2,1,3,1,1,0
43246221,33041221,34.0355986,108.7573236,1.13933,-9.90349,-2.22419,0.186228,0.559512,0.0,0.0228462,-0.738411,-0.204393,-0.162831,0.167834,-0.187585,-0.113012,1.11403,0.403513,-0.275175,-1.52332,0.0375018,420.693,3.00089,0.286973,0.396415,0.151865,0.109929,inf,inf,inf,inf,1,1,1,1,2,0,2,1,3,1,1,0
43345627,33041221,34.0355986,108.7573236,1.14233,-9.97868,-2.24351,0.186228,0.559512,0.0,0.0308769,-0.730826,-0.165492,-0.129902,0.167834,-0.187585,-0.113012,-0.513461,1.13135,-2.21412,-1.52264,0.0375018,420.693,3.02022,0.277209,0.39361,0.145439,0.108075,inf,inf,inf,inf,1,1,1,1,2,0,2,1,3,1,1,0
43449823,33041221,34.0355986,108.7573236,1.14532,-10.0524,-2.26052,0.186228,0.559512,0.0,0.0218696,-0.699155,-0.142175,-0.11245,0.167834,-0.187585,-0.113012,0.605229,2.05065,-1.07816,-1.52049,0.0375018,420.693,3.03722,0.286532,0.395629,0.150689,0.109402,inf,inf,inf,inf,1,1,1,1,2,0,2,1,3,1,1,0
43549141,33041221,34.0355986,108.7573236,1.15023,-10.1194,-2.28493,0.186228,0.559512,0.0,0.0196409,-0.667446,-0.119948,-0.105195,0.167834,-0.187585,-0.113012,-1.48827,-0.0589584,0.304131,-1.51727,0.0375018,420.693,3.06163,0.276676,0.392839,0.14445,0.107576,inf,inf,inf,inf,1,1,1,1,2,0,2,1,3,1,1,0
43648463,33041221,34.0355986,108.7573236,1.1592,-10.1849,-2.31288,0.186228,0.559512,0.0,0.0162412,-0.64874,-0.0951046,-0.0988043,0.167834,-0.187585,-0.113012,-4.62593,0.220301,-0.488021,-1.5156,0.0375018,420.693,3.08958,0.285977,0.39484,0.150295,0.10896,inf,inf,inf,inf,1,1,1,1,2,0,2,1,3,1,1,0
43747777,33041221,34.0355986,108.7573236,1.15891,-10.2423,-2.33749,0.186228,0.559512,0.0,-0.0219002,-0.586224,-0.0380217,-0.058634,0.167834,-0.187585,-0.113012,-2.67407,1.5023,-0.834293,-1.5137,0.0375018,420.693,3.11419,0.276331,0.392089,0.144363,0.107158,inf,inf,inf,inf,1,1,1,1,2,0,2,1,3,1,1,0
43847100,33041221,34.0355986,108.7573236,1.15241,-10.294,-2.35369,0.186228,0.559512,0.0,-0.0351496,-0.542336,0.038358,0.00424363,0.167834,-0.187585,-0.113012,2.18047,2.35478,-1.01849,-1.51122,0.0375018,420.693,3.13039,0.285634,0.396576,0.149583,0.108738,inf,inf,inf,inf,1,1,1,1,2,0,2,1,3,1,1,0
43941501,33041221,34.0355986,108.7573236,1.14675,-10.3409,-2.3644,0.186228,0.559512,0.0,-0.074738,-0.536334,0.116321,0.0680766,0.167834,-0.187585,-0.113012,-0.308335,-1.97992,3.13658,-1.5106,0.0375018,420.693,3.1411,0.275113,0.393099,0.142972,0.106783,inf,inf,inf,inf,1,1,1,1,2,0,2,1,3,1,1,0
44040770,33041221,34.0355986,108.7573236,1.14072,-10.3887,-2.36799,0.186228,0.559512,0.0,-0.0696717,-0.506828,0.183017,0.122131,0.167834,-0.187585,-0.113012,2.12568,0.485605,0.459385,-1.5109,0.0375018,420.693,3.14469,0.284325,0.39505,0.147894,0.108045,inf,inf,inf,inf,1,1,1,1,2,0,2,1,3,1,1,0
44150048,33041221,34.0355986,108.7573236,1.1331,-10.4352,-2.36373,0.186228,0.559512,0.0,-0.090576,-0.495554,0.270041,0.196799,0.167834,-0.187585,-0.113012,-1.04214,-2.03581,2.97871,-1.51294,0.0375018,420.693,3.14043,0.275548,0.392976,0.142501,0.106453,inf,inf,inf,inf,1,1,1,1,2,0,2,1,3,1,1,0
44249382,33041221,34.0355986,108.7573236,1.12567,-10.4752,-2.3507,0.186228,0.559512,0.0,-0.071641,-0.488129,0.335939,0.254839,0.167834,-0.187585,-0.113012,-1.80394,-0.298209,0.436459,-1.51199,0.0375018,420.693,3.1274,0.28479,0.394893,0.147433,0.107726,inf,inf,inf,inf,1,1,1,1,2,0,2,1,3,1,1,0
44348659,33041221,34.0355986,108.7573236,1.11899,-10.5157,-2.33144,0.186228,0.559512,0.0,-0.060098,-0.500976,0.414661,0.325502,0.167834,-0.187585,-0.113012,-2.13372,-1.9755,2.38807,-1.51207,0.0375018,420.693,3.10814,0.275209,0.394628,0.141476,0.106272,inf,inf,inf,inf,1,1,1,1,2,0,2,1,3,1,1,0
44448136,33041221,34.0355986,108.7573236,1.11216,-10.5575,-2.30304,0.186228,0.559512,0.0,-0.054237,-0.488345,0.469342,0.375387,0.167834,-0.187585,-0.113012,-0.53614,1.39351,-0.743462,-1.51206,0.0375018,420.693,3.07974,0.284424,0.396556,0.146344,0.107517,inf,inf,inf,inf,1,1,1,1,2,0,2,1,3,1,1,0
44547295,33041221,34.0355986,108.7573236,1.11566,-10.5999,-2.27903,0.186228,0.559512,0.0,-0.0734713,-0.492422,0.523116,0.41476,0.167834,-0.187585,-0.113012,-5.27258,-0.145273,0.206749,-1.51353,0.0375018,420.693,3.05573,0.274871,0.393781,0.140556,0.105783,inf,inf,inf,inf,1,1,1,1,2,0,2,1,3,1,1,0
44646614,33041221,34.0355986,108.7573236,1.12047,-10.6421,-2.25055,0.186228,0.559512,0.0,-0.061772,-0.468642,0.522203,0.402981,0.167834,-0.187585,-0.113012,1.83327,0.0460542,-0.581656,-1.51646,0.0375018,420.693,3.02725,0.284062,0.39568,0.145585,0.10704,inf,inf,inf,inf,1,1,1,1,2,0,2,1,3,1,1,0
44745956,33041221,34.0355986,108.7573236,1.10632,-10.6749,-2.2183,0.186228,0.559512,0.0,-0.115747,-0.446032,0.484827,0.362074,0.167834,-0.187585,-0.113012,-3.46441,-1.29225,1.1792,-1.52133,0.0375018,420.693,2.995,0.274535,0.392934,0.140095,0.105347,inf,inf,inf,inf,1,1,1,1,2,0,2,1,3,1,1,0
44845252,33041221,34.0355986,108.7573236,1.08442,-10.7043,-2.18713,0.186228,0.559512,0.0,-0.133584,-0.397593,0.424509,0.302174,0.167834,-0.187585,-0.113012,4.54445,2.07485,-2.50116,-1.52471,0.0375018,420.693,2.96384,0.283722,0.394807,0.145693,0.10662,inf,inf,inf,inf,1,1,1,1,2,0,2,1,3,1,1,0
44944570,33041221,34.0355986,108.7573236,1.06585,-10.7287,-2.15089,0.186228,0.559512,0.0,-0.189951,-0.396508,0.386101,0.274194,0.167834,-0.187585,-0.113012,-2.18802,-1.5141,1.39682,-1.52762,0.0375018,420.693,2.92759,0.274205,0.39208,0.140784,0.104967,inf,inf,inf,inf,1,1,1,1,2,0,2,1,3,1,1,0
45043889,33041221,34.0355986,108.7573236,1.04606,-10.7546,-2.11467,0.186228,0.559512,0.0,-0.205267,-0.383273,0.340988,0.241948,0.167834,-0.187585,-0.113012,0.619144,0.449886,-0.73402,-1.5271,0.0375018,420.693,2.89138,0.283439,0.396458,0.146693,0.106525,inf,inf,inf,inf,1,1,1,1,2,0,2,1,3,1,1,0
45143209,33041221,34.0355986,108.7573236,1.02995,-10.7887,-2.07719,0.186228,0.559512,0.0,-0.235832,-0.404304,0.307318,0.224493,0.167834,-0.187585,-0.113012,-0.695521,0.232017,-1.48931,-1.52888,0.0375018,420.693,2.85389,0.273775,0.393707,0.141475,0.10487,inf,inf,inf,inf,1,1,1,1,2,0,2,1,3,1,1,0
45242743,33041221,34.0355986,108.7573236,1.01361,-10.8305,-2.04179,0.186228,0.559512,0.0,-0.226792,-0.453498,0.291308,0.222819,0.167834,-0.187585,-0.113012,2.73368,-1.67711,2.19705,-1.5271,0.0375018,420.693,2.81849,0.283039,0.395578,0.147323,0.106137,inf,inf,inf,inf,1,1,1,1,2,0,2,1,3,1,1,0
45346812,33041221,34.0355986,108.7573236,0.998134,-10.8808,-2.01087,0.186228,0.559512,0.0,-0.216899,-0.5175,0.254315,0.195756,0.167834,-0.187585,-0.113012,2.79159,-0.68398,0.265328,-1.52591,0.0375018,420.693,2.78757,0.273352,0.392853,0.141956,0.104513,inf,inf,inf,inf,1,1,1,1,2,0,2,1,3,1,1,0
45446132,33041221,34.0355986,108.7573236,0.984599,-10.9354,-1.98501,0.186228,0.559512,0.0,-0.218521,-0.577868,0.218697,0.16778,0.167834,-0.187585,-0.113012,0.845141,0.449339,-3.10019,-1.52497,0.0375018,420.693,2.76172,0.282637,0.394693,0.148041,0.10577,inf,inf,inf,inf,1,1,1,1,2,0,2,1,3,1,1,0
45545449,33041221,34.0355986,108.7573236,0.969208,-10.9997,-1.96145,0.186228,0.559512,0.0,-0.190479,-0.648253,0.212141,0.168238,0.167834,-0.187585,-0.113012,2.44999,-1.71269,1.81884,-1.52178,0.0375018,420.693,2.73815,0.272828,0.391997,0.1425,0.10412,inf,inf,inf,inf,1,1,1,1,2,0,2,1,3,1,1,0
45644768,33041221,34.0355986,108.7573236,0.95483,-11.0733,-1.9421,0.186228,0.559512,0.0,-0.186978,-0.727479,0.177865,0.138078,0.167834,-0.187585,-0.113012,-2.39503,-0.520537,-1.5573,-1.51899,0.0375018,420.693,2.7188,0.282133,0.393822,0.148204,0.105362,inf,inf,inf,inf,1,1,1,1,2,0,2,1,3,1,1,0
45744087,33041221,34.0355986,108.7573236,0.941571,-11.1565,-1.93078,0.186228,0.559512,0.0,-0.144576,-0.806028,0.148945,0.108403,0.167834,-0.187585,-0.113012,0.178122,-2.42809,1.71309,-1.51496,0.0375018,420.693,2.70748,0.272562,0.391166,0.142702,0.103757,inf,inf,inf,inf,1,1,1,1,2,0,2,1,3,1,1,0
45848371,33041221,34.0355986,108.7573236,0.930726,-11.2514,-1.92139,0.186228,0.559512,0.0,-0.120947,-0.894223,0.113846,0.0733539,0.167834,-0.187585,-0.113012,0.745064,-1.4212,0.574009,-1.51048,0.0375018,420.693,2.69809,0.281892,0.395478,0.148499,0.105281,inf,inf,inf,inf,1,1,1,1,2,0,2,1,3,1,1,0
45947701,33041221,34.0355986,108.7573236,0.919698,-11.3494,-1.91524,0.186228,0.559512,0.0,-0.0966926,-0.958526,0.0846017,0.0439808,0.167834,-0.187585,-0.113012,-0.978418,-1.10681,-0.855653,-1.50782,0.0375018,420.693,2.69194,0.272177,0.39279,0.142935,0.103665,inf,inf,inf,inf,1,1,1,1,2,0,2,1,3,1,1,0
46047093,33041221,34.0355986,108.7573236,0.910082,-11.454,-1.91181,0.186228,0.559512,0.0,-0.0622897,-1.03337,0.0609424,0.0203567,0.167834,-0.187585,-0.113012,-2.59119,-1.69791,0.394611,-1.50775,0.0375018,420.693,2.68851,0.281533,0.394613,0.148996,0.104895,inf,inf,inf,inf,1,1,1,1,2,0,2,1,3,1,1,0
46146348,33041221,34.0355986,108.7573236,0.899706,-11.5673,-1.91558,0.186228,0.559512,0.0,-0.0304593,-1.1038,0.0338279,-0.0113809,0.167834,-0.187585,-0.113012,-1.62233,-1.68261,-0.399738,-1.5112,0.0375018,420.693,2.69228,0.271924,0.391965,0.143425,0.103337,inf,inf,inf,inf,1,1,1,1,2,0,2,1,3,1,1,0
46245647,33041221,34.0355986,108.7573236,0.890404,-11.6868,-1.92368,0.186228,0.559512,0.0,-0.0143608,-1.16548,-0.00129773,-0.0515499,0.167834,-0.187585,-0.113012,-0.117937,0.162191,-0.320422,-1.5127,0.0375018,420.693,2.70039,0.281303,0.393766,0.149115,0.104537,inf,inf,inf,inf,1,1,1,1,2,0,2,1,3,1,1,0
46335217,33041221,34.0355986,108.7573236,0.886319,-11.8004,-1.93628,0.186228,0.559512,0.0,0.0183114,-1.22992,-0.0282573,-0.0848725,0.167834,-0.187585,-0.113012,0.266247,-1.68731,0.479478,-1.51465,0.0375018,420.693,2.71298,0.270648,0.390469,0.142783,0.102796,inf,inf,inf,inf,1,1,1,1,2,0,2,1,3,1,1,0
46449250,33041221,34.0355986,108.7573236,0.886397,-11.9519,-1.9588,0.186228,0.559512,0.0,0.0345813,-1.29926,-0.0658708,-0.132299,0.167834,-0.187585,-0.113012,-4.56888,-3.51614,2.03333,-1.51554,0.0375018,420.693,2.73551,0.280935,0.392914,0.149081,0.104167,inf,inf,inf,inf,1,1,1,1,2,0,2,1,3,1,1,0
46548569,33041221,34.0355986,108.7573236,0.887291,-12.0911,-1.98723,0.186228,0.559512,0.0,0.0861682,-1.35077,-0.110084,-0.188756,0.167834,-0.187585,-0.113012,-0.260485,1.42102,-3.36372,-1.51662,0.0375018,420.693,2.76393,0.271206,0.390308,0.143731,0.102647,inf,inf,inf,inf,1,1,1,1,2,0,2,1,3,1,1,0
46647927,33041221,34.0355986,108.7573236,0.890833,-12.2367,-2.02186,0.186228,0.559512,0.0,0.111741,-1.43043,-0.140868,-0.232629,0.167834,-0.187585,-0.113012,-3.39732,-2.99513,1.47119,-1.52024,0.0375018,420.693,2.79856,0.280613,0.394566,0.149311,0.10411,inf,inf,inf,inf,1,1,1,1,2,0,2,1,3,1,1,0
46747208,33041221,34.0355986,108.7573236,0.898331,-12.3874,-2.0631,0.186228,0.559512,0.0,0.149124,-1.48676,-0.187482,-0.293596,0.167834,-0.187585,-0.113012,-0.831545,-1.05801,-0.120704,-1.52514,0.0375018,420.693,2.8398,0.270949,0.39195,0.143654,0.102592,inf,inf,inf,inf,1,1,1,1,2,0,2,1,3,1,1,0
46846609,33041221,34.0355986,108.7573236,0.910899,-12.5428,-2.10592,0.186228,0.559512,0.0,0.201958,-1.54377,-0.220825,-0.337871,0.167834,-0.187585,-0.113012,3.13238,1.47989,-2.43364,-1.53171,0.0375018,420.693,2.88262,0.280369,0.393728,0.14919,0.10377,inf,inf,inf,inf,1,1,1,1,2,0,2,1,3,1,1,0
46950811,33041221,34.0355986,108.7573236,0.927543,-12.7099,-2.14733,0.186228,0.559512,0.0,0.233457,-1.60224,-0.245142,-0.366659,0.167834,-0.187585,-0.113012,-1.5171,-0.829455,-1.25508,-1.5389,0.0375018,420.693,2.92404,0.270701,0.391135,0.143461,0.102252,inf,inf,inf,inf,1,1,1,1,2,0,2,1,3,1,1,0
47040203,33041221,34.0355986,108.7573236,0.945149,-12.8571,-2.18259,0.186228,0.559512,0.0,0.275872,-1.64166,-0.268216,-0.39044,0.167834,-0.187585,-0.113012,2.04644,1.68167,-3.0408,-1.54406,0.0375018,420.693,2.95929,0.279159,0.392216,0.148475,0.103251,inf,inf,inf,inf,1,1,1,1,2,0,2,1,3,1,1,0
47149448,33041221,34.0355986,108.7573236,0.972623,-13.0428,-2.23422,0.186228,0.559512,0.0,0.304349,-1.69663,-0.297671,-0.425721,0.167834,-0.187585,-0.113012,1.9728,0.862154,-1.14172,-1.54788,0.0375018,420.693,3.01092,0.270351,0.390323,0.14338,0.101928,inf,inf,inf,inf,1,1,1,1,2,0,2,1,3,1,1,0
47248782,33041221,34.0355986,108.7573236,1.0028,-13.2165,-2.28384,0.186228,0.559512,0.0,0.335559,-1.73294,-0.324077,-0.456325,0.167834,-0.187585,-0.113012,-1.1584,-0.934897,1.10961,-1.54924,0.0375018,420.693,3.06054,0.279783,0.392067,0.148841,0.103095,inf,inf,inf,inf,1,1,1,1,2,0,2,1,3,1,1,0
47348089,33041221,34.0355986,108.7573236,1.03504,-13.393,-2.32856,0.186228,0.559512,0.0,0.371303,-1.77754,-0.354172,-0.482355,0.167834,-0.187585,-0.113012,3.41631,-0.0341378,0.0304551,-1.54741,0.0375018,420.693,3.10526,0.269989,0.391956,0.142844,0.101873,inf,inf,inf,inf,1,1,1,1,2,0,2,1,3,1,1,0
47447405,33041221,34.0355986,108.7573236,1.06998,-13.5717,-2.37283,0.186228,0.559512,0.0,0.395851,-1.78088,-0.394438,-0.516177,0.167834,-0.187585,-0.113012,3.25331,1.67069,-2.73835,-1.54585,0.0375018,420.693,3.14953,0.279404,0.393719,0.148241,0.103036,inf,inf,inf,inf,1,1,1,1,2,0,2,1,3,1,1,0
47546728,33041221,34.0355986,108.7573236,1.11525,-13.7545,-2.42845,0.186228,0.559512,0.0,0.419722,-1.82016,-0.409797,-0.534265,0.167834,-0.187585,-0.113012,-0.559918,-0.469126,1.24135,-1.54368,0.0375018,420.693,3.20516,0.269638,0.391148,0.142373,0.101545,inf,inf,inf,inf,1,1,1,1,2,0,2,1,3,1,1,0
47646058,33041221,34.0355986,108.7573236,1.16724,-13.9388,-2.49109,0.186228,0.559512,0.0,0.437082,-1.80728,-0.455456,-0.585312,0.167834,-0.187585,-0.113012,-0.96797,-2.16964,2.38867,-1.54178,0.0375018,420.693,3.2678,0.279041,0.392891,0.147748,0.102701,inf,inf,inf,inf,1,1,1,1,2,0,2,1,3,1,1,0
47740395,33041221,34.0355986,108.7573236,1.20616,-14.1093,-2.55766,0.186228,0.559512,0.0,0.436953,-1.78427,-0.514137,-0.651865,0.167834,-0.187585,-0.113012,-0.344028,0.461458,-1.95515,-1.5398,0.0375018,420.693,3.33436,0.268396,0.389686,0.14129,0.101057,inf,inf,inf,inf,1,1,1,1,2,0,2,1,3,1,1,0
47849646,33041221,34.0355986,108.7573236,1.24647,-14.3038,-2.63966,0.186228,0.559512,0.0,0.460434,-1.75331,-0.523063,-0.668952,0.167834,-0.187585,-0.113012,4.79277,0.0134433,1.03959,-1.54117,0.0375018,420.693,3.41636,0.278686,0.392064,0.147214,0.10238,inf,inf,inf,inf,1,1,1,1,2,0,2,1,3,1,1,0
47949144,33041221,34.0355986,108.7573236,1.28158,-14.4784,-2.71547,0.186228,0.559512,0.0,0.441829,-1.69774,-0.48039,-0.635726,0.167834,-0.187585,-0.113012,1.1603,1.81054,-0.372369,-1.54432,0.0375018,420.693,3.49217,0.268994,0.391972,0.141768,0.101189,inf,inf,inf,inf,1,1,1,1,2,0,2,1,3,1,1,0
48048282,33041221,34.0355986,108.7573236,1.316,-14.649,-2.78442,0.186228,0.559512,0.0,0.40811,-1.66232,-0.422873,-0.584901,0.167834,-0.187585,-0.113012,-0.959637,1.59728,-1.13732,-1.54798,0.0375018,420.693,3.56112,0.278377,0.393698,0.146707,0.102307,inf,inf,inf,inf,1,1,1,1,2,0,2,1,3,1,1,0
48147603,33041221,34.0355986,108.7573236,1.35499,-14.8204,-2.85132,0.186228,0.559512,0.0,0.407473,-1.62137,-0.347594,-0.520142,0.167834,-0.187585,-0.113012,-1.54609,-1.48248,2.38133,-1.55136,0.0375018,420.693,3.62802,0.268748,0.391139,0.140331,0.100821,inf,inf,inf,inf,1,1,1,1,2,0,2,1,3,1,1,0
48246921,33041221,34.0355986,108.7573236,1.39558,-14.989,-2.90872,0.186228,0.559512,0.0,0.399043,-1.57505,-0.290909,-0.469904,0.167834,-0.187585,-0.113012,-1.71281,0.784272,-1.17125,-1.55514,0.0375018,420.693,3.68542,0.278069,0.392833,0.14485,0.101919,inf,inf,inf,inf,1,1,1,1,2,0,2,1,3,1,1,0
48346240,33041221,34.0355986,108.7573236,1.43127,-15.1588,-2.96508,0.186228,0.559512,0.0,0.399902,-1.55367,-0.220699,-0.411292,0.167834,-0.187585,-0.113012,2.64676,0.0777021,0.374468,-1.55693,0.0375018,420.693,3.74178,0.26855,0.390293,0.138702,0.100452,inf,inf,inf,inf,1,1,1,1,2,0,2,1,3,1,1,0
48445596,33041221,34.0355986,108.7573236,1.46443,-15.3261,-3.01655,0.186228,0.559512,0.0,0.384244,-1.52679,-0.176571,-0.377765,0.167834,-0.187585,-0.113012,0.536267,1.10343,-0.917759,-1.5581,0.0375018,420.693,3.79325,0.277799,0.391962,0.143184,0.101534,inf,inf,inf,inf,1,1,1,1,2,0,2,1,3,1,1,0
48549844,33041221,34.0355986,108.7573236,1.49614,-15.494,-3.05624,0.186228,0.559512,0.0,0.355328,-1.48186,-0.149995,-0.351406,0.167834,-0.187585,-0.113012,-3.29752,2.41868,-1.07445,-1.55688,0.0375018,420.693,3.83294,0.268346,0.391889,0.137337,0.100357,inf,inf,inf,inf,1,1,1,1,2,0,2,1,3,1,1,0
48649164,33041221,34.0355986,108.7573236,1.52362,-15.6482,-3.0866,0.186228,0.559512,0.0,0.337186,-1.4625,-0.1248,-0.320626,0.167834,-0.187585,-0.113012,-3.8936,-1.76618,0.81125,-1.55634,0.0375018,420.693,3.86331,0.277537,0.393566,0.141976,0.101444,inf,inf,inf,inf,1,1,1,1,2,0,2,1,3,1,1,0
48748617,33041221,34.0355986,108.7573236,1.55026,-15.7963,-3.10539,0.186228,0.559512,0.0,0.340955,-1.41958,-0.0754417,-0.257817,0.167834,-0.187585,-0.113012,0.267233,0.227351,0.714055,-1.55319,0.0375018,420.693,3.88209,0.268162,0.391044,0.136862,0.100041,inf,inf,inf,inf,1,1,1,1,2,0,2,1,3,1,1,0
48847856,33041221,34.0355986,108.7573236,1.57601,-15.938,-3.11543,0.186228,0.559512,0.0,0.306091,-1.38792,-0.0428475,-0.209135,0.167834,-0.187585,-0.113012,-3.12972,-1.77981,0.800665,-1.55128,0.0375018,420.693,3.89213,0.277327,0.392709,0.141617,0.101135,inf,inf,inf,inf,1,1,1,1,2,0,2,1,3,1,1,0
48947121,33041221,34.0355986,108.7573236,1.60394,-16.0774,-3.11932,0.186228,0.559512,0.0,0.293889,-1.33109,-0.0102787,-0.160004,0.167834,-0.187585,-0.113012,-1.6428,1.63632,0.593896,-1.54872,0.0375018,420.693,3.89602,0.268001,0.390204,0.136203,0.0997226,inf,inf,inf,inf,1,1,1,1,2,0,2,1,3,1,1,0
49046438,33041221,34.0355986,108.7573236,1.63197,-16.2118,-3.12018,0.186228,0.559512,0.0,0.271007,-1.27775,0.00886088,-0.126282,0.167834,-0.187585,-0.113012,-3.72329,0.908458,-1.30292,-1.54916,0.0375018,420.693,3.89688,0.27713,0.391847,0.140905,0.100811,inf,inf,inf,inf,1,1,1,1,2,0,2,1,3,1,1,0
49145757,33041221,34.0355986,108.7573236,1.65944,-16.3386,-3.11735,0.186228,0.559512,0.0,0.260254,-1.23724,0.0505022,-0.0712331,0.167834,-0.187585,-0.113012,2.72303,0.684715,-0.30303,-1.54647,0.0375018,420.693,3.89406,0.267809,0.391789,0.135686,0.0996788,inf,inf,inf,inf,1,1,1,1,2,0,2,1,3,1,1,0
49245081,33041221,34.0355986,108.7573236,1.68586,-16.4584,-3.11025,0.186228,0.559512,0.0,0.247077,-1.18128,0.0884337,-0.0207693,0.167834,-0.187585,-0.113012,1.55206,0.555426,1.18898,-1.54292,0.0375018,420.693,3.88695,0.276909,0.393426,0.140435,0.100764,inf,inf,inf,inf,1,1,1,1,2,0,2,1,3,1,1,0
49344395,33041221,34.0355986,108.7573236,1.70852,-16.5724,-3.09639,0.186228,0.559512,0.0,0.23318,-1.11736,0.117601,0.0227857,0.167834,-0.187585,-0.113012,3.80306,0.963876,-0.839305,-1.53822,0.0375018,420.693,3.87309,0.267595,0.390915,0.13527,0.0993773,inf,inf,inf,inf,1,1,1,1,2,0,2,1,3,1,1,0
49443714,33041221,34.0355986,108.7573236,1.72894,-16.6807,-3.07951,0.186228,0.559512,0.0,0.209407,-1.07506,0.162779,0.0799846,0.167834,-0.187585,-0.113012,1.66001,0.102963,1.23853,-1.53574,0.0375018,420.693,3.85621,0.276667,0.392532,0.139994,0.100451,inf,inf,inf,inf,1,1,1,1,2,0,2,1,3,1,1,0
49543121,33041221,34.0355986,108.7573236,1.74805,-16.7844,-3.05815,0.186228,0.559512,0.0,0.180344,-1.02585,0.190706,0.119308,0.167834,-0.187585,-0.113012,-2.15423,2.18715,-2.00011,-1.5356,0.0375018,420.693,3.83485,0.267331,0.390039,0.13487,0.0990786,inf,inf,inf,inf,1,1,1,1,2,0,2,1,3,1,1,0
49647317,33041221,34.0355986,108.7573236,1.76683,-16.8872,-3.03085,0.186228,0.559512,0.0,0.18419,-0.967334,0.233498,0.173209,0.167834,-0.187585,-0.113012,0.199847,1.80784,-0.660861,-1.53569,0.0375018,420.693,3.80755,0.276375,0.391637,0.139556,0.100147,inf,inf,inf,inf,1,1,1,1,2,0,2,1,3,1,1,0
49746638,33041221,34.0355986,108.7573236,1.78472,-16.9785,-3.00162,0.186228,0.559512,0.0,0.175475,-0.929219,0.270992,0.220172,0.167834,-0.187585,-0.113012,1.08409,-1.25242,2.19529,-1.53911,0.0375018,420.693,3.77832,0.267052,0.389169,0.13473,0.0987983,inf,inf,inf,inf,1,1,1,1,2,0,2,1,3,1,1,0
49836224,33041221,34.0355986,108.7573236,1.7998,-17.0561,-2.97273,0.186228,0.559512,0.0,0.182873,-0.877889,0.298714,0.255476,0.167834,-0.187585,-0.113012,5.13558,2.38213,-0.401383,-1.54079,0.0375018,420.693,3.74943,0.275154,0.392558,0.139001,0.0999742,inf,inf,inf,inf,1,1,1,1,2,0,2,1,3,1,1,0
49950240,33041221,34.0355986,108.7573236,1.8198,-17.15,-2.929,0.186228,0.559512,0.0,0.160914,-0.829811,0.319544,0.28872,0.167834,-0.187585,-0.113012,0.914333,0.740803,-0.993667,-1.54417,0.0375018,420.693,3.70571,0.266773,0.39074,0.134388,0.0987776,inf,inf,inf,inf,1,1,1,1,2,0,2,1,3,1,1,0
50039627,33041221,34.0355986,108.7573236,1.83615,-17.2187,-2.89108,0.186228,0.559512,0.0,0.142538,-0.781918,0.354976,0.333309,0.167834,-0.187585,-0.113012,-2.9992,2.01478,-1.09515,-1.5461,0.0375018,420.693,3.66779,0.274859,0.391686,0.138881,0.0996947,inf,inf,inf,inf,1,1,1,1,2,0,2,1,3,1,1,0
50148877,33041221,34.0355986,108.7573236,1.85072,-17.2967,-2.84015,0.186228,0.559512,0.0,0.139964,-0.744045,0.381367,0.37173,0.167834,-0.187585,-0.113012,1.40104,0.637876,-0.160982,-1.54822,0.0375018,420.693,3.61685,0.266487,0.389888,0.134406,0.0985227,inf,inf,inf,inf,1,1,1,1,2,0,2,1,3,1,1,0
50248201,33041221,34.0355986,108.7573236,1.86047,-17.3622,-2.79138,0.186228,0.559512,0.0,0.12304,-0.698853,0.408387,0.40784,0.167834,-0.187585,-0.113012,1.17159,1.29723,0.142588,-1.54974,0.0375018,420.693,3.56809,0.275493,0.391477,0.13913,0.0995879,inf,inf,inf,inf,1,1,1,1,2,0,2,1,3,1,1,0
50347634,33041221,34.0355986,108.7573236,1.87339,-17.4304,-2.74684,0.186228,0.559512,0.0,0.11169,-0.652558,0.434113,0.434644,0.167834,-0.187585,-0.113012,4.75778,-0.162006,-0.448114,-1.55128,0.0375018,420.693,3.52354,0.266238,0.389049,0.134154,0.0982583,inf,inf,inf,inf,1,1,1,1,2,0,2,1,3,1,1,0
50446834,33041221,34.0355986,108.7573236,1.88637,-17.4974,-2.70157,0.186228,0.559512,0.0,0.0659145,-0.618215,0.475458,0.474788,0.167834,-0.187585,-0.113012,-1.07311,0.18994,0.451078,-1.55304,0.0375018,420.693,3.47827,0.275229,0.390621,0.138867,0.0993142,inf,inf,inf,inf,1,1,1,1,2,0,2,1,3,1,1,0
50546153,33041221,34.0355986,108.7573236,1.89441,-17.5592,-2.6503,0.186228,0.559512,0.0,0.0477426,-0.573811,0.502476,0.502803,0.167834,-0.187585,-0.113012,-0.105919,0.932604,-0.631168,-1.55539,0.0375018,420.693,3.427,0.266016,0.388215,0.133976,0.0980067,inf,inf,inf,inf,1,1,1,1,2,0,2,1,3,1,1,0
50645476,33041221,34.0355986,108.7573236,1.89861,-17.616,-2.59787,0.186228,0.559512,0.0,-0.0089867,-0.532413,0.511288,0.512406,0.167834,-0.187585,-0.113012,-3.15053,-0.590005,0.0873431,-1.5537,0.0375018,420.693,3.37457,0.274992,0.392209,0.138534,0.0993189,inf,inf,inf,inf,1,1,1,1,2,0,2,1,3,1,1,0
50744815,33041221,34.0355986,108.7573236,1.89487,-17.6623,-2.54208,0.186228,0.559512,0.0,-0.0283062,-0.496246,0.517585,0.521908,0.167834,-0.187585,-0.113012,0.486565,-0.208486,0.45999,-1.54705,0.0375018,420.693,3.31879,0.265692,0.389775,0.133622,0.0979999,inf,inf,inf,inf,1,1,1,1,2,0,2,1,3,1,1,0
50844112,33041221,34.0355986,108.7573236,1.88507,-17.7009,-2.48603,0.186228,0.559512,0.0,-0.0713756,-0.44091,0.514646,0.522084,0.167834,-0.187585,-0.113012,0.566233,0.768962,-0.605204,-1.54039,0.0375018,420.693,3.26273,0.274647,0.391326,0.138431,0.099063,inf,inf,inf,inf,1,1,1,1,2,0,2,1,3,1,1,0
50943429,33041221,34.0355986,108.7573236,1.87308,-17.7343,-2.43362,0.186228,0.559512,0.0,-0.093476,-0.401154,0.51275,0.51971,0.167834,-0.187585,-0.113012,4.3773,1.82089,-0.738462,-1.53174,0.0375018,420.693,3.21032,0.265425,0.388905,0.133667,0.0977561,inf,inf,inf,inf,1,1,1,1,2,0,2,1,3,1,1,0
51042786,33041221,34.0355986,108.7573236,1.85971,-17.7641,-2.38151,0.186228,0.559512,0.0,-0.142879,-0.359684,0.517593,0.524087,0.167834,-0.187585,-0.113012,-0.713836,0.431771,0.486348,-1.52631,0.0375018,420.693,3.15821,0.274381,0.390432,0.138504,0.0988052,inf,inf,inf,inf,1,1,1,1,2,0,2,1,3,1,1,0
51142080,33041221,34.0355986,108.7573236,1.84035,-17.7958,-2.32999,0.186228,0.559512,0.0,-0.182949,-0.362187,0.511538,0.516705,0.167834,-0.187585,-0.113012,-3.18852,1.1032,-1.92803,-1.52181,0.0375018,420.693,3.10669,0.26516,0.390442,0.133735,0.0977714,inf,inf,inf,inf,1,1,1,1,2,0,2,1,3,1,1,0
51246351,33041221,34.0355986,108.7573236,1.81856,-17.8337,-2.27772,0.186228,0.559512,0.0,-0.171709,-0.387453,0.507092,0.510305,0.167834,-0.187585,-0.113012,-0.87906,-2.00181,2.03904,-1.52071,0.0375018,420.693,3.05442,0.274116,0.39199,0.138516,0.0988248,inf,inf,inf,inf,1,1,1,1,2,0,2,1,3,1,1,0
51345670,33041221,34.0355986,108.7573236,1.7974,-17.8691,-2.22847,0.186228,0.559512,0.0,-0.184982,-0.388699,0.469216,0.472378,0.167834,-0.187585,-0.113012,1.37697,1.16591,-2.62388,-1.52221,0.0375018,420.693,3.00517,0.264864,0.389572,0.133636,0.0975252,inf,inf,inf,inf,1,1,1,1,2,0,2,1,3,1,1,0
51445158,33041221,34.0355986,108.7573236,1.77345,-17.9066,-2.17474,0.186228,0.559512,0.0,-0.222476,-0.421941,0.444059,0.454428,0.167834,-0.187585,-0.113012,-1.57191,-0.947015,-0.689834,-1.52327,0.0375018,420.693,2.95144,0.273827,0.391112,0.138727,0.0985813,inf,inf,inf,inf,1,1,1,1,2,0,2,1,3,1,1,0
51544347,33041221,34.0355986,108.7573236,1.75392,-17.9491,-2.11489,0.186228,0.559512,0.0,-0.208512,-0.474718,0.424641,0.450042,0.167834,-0.187585,-0.113012,-0.774959,-1.38287,1.16374,-1.52418,0.0375018,420.693,2.89159,0.26448,0.388719,0.13391,0.0973063,inf,inf,inf,inf,1,1,1,1,2,0,2,1,3,1,1,0
51643626,33041221,34.0355986,108.7573236,1.73737,-17.9966,-2.05087,0.186228,0.559512,0.0,-0.224878,-0.507767,0.424572,0.468483,0.167834,-0.187585,-0.113012,-1.91652,-0.620229,0.289136,-1.5246,0.0375018,420.693,2.82757,0.273443,0.390238,0.138784,0.098346,inf,inf,inf,inf,1,1,1,1,2,0,2,1,3,1,1,0
51747916,33041221,34.0355986,108.7573236,1.72562,-18.0536,-1.97729,0.186228,0.559512,0.0,-0.233866,-0.540865,0.436906,0.50359,0.167834,-0.187585,-0.113012,-2.70666,-2.11891,1.01593,-1.52531,0.0375018,420.693,2.754,0.264179,0.387873,0.133934,0.0970744,inf,inf,inf,inf,1,1,1,1,2,0,2,1,3,1,1,0
51847230,33041221,34.0355986,108.7573236,1.71637,-18.1134,-1.90606,0.186228,0.559512,0.0,-0.236394,-0.590279,0.436214,0.52251,0.167834,-0.187585,-0.113012,-3.82038,-0.999576,-0.765926,-1.52577,0.0375018,420.693,2.68276,0.273142,0.391816,0.138623,0.0983693,inf,inf,inf,inf,1,1,1,1,2,0,2,1,3,1,1,0
51946599,33041221,34.0355986,108.7573236,1.70917,-18.1747,-1.83329,0.186228,0.559512,0.0,-0.241047,-0.630826,0.430368,0.535459,0.167834,-0.187585,-0.113012,-1.48513,-0.759769,-0.464443,-1.52574,0.0375018,420.693,2.60999,0.26388,0.389435,0.133993,0.0971222,inf,inf,inf,inf,1,1,1,1,2,0,2,1,3,1,1,0
52045868,33041221,34.0355986,108.7573236,1.70027,-18.2383,-1.76171,0.186228,0.559512,0.0,-0.244185,-0.672448,0.428257,0.549235,0.167834,-0.187585,-0.113012,0.182358,-0.586973,0.277577,-1.52689,0.0375018,420.693,2.53841,0.272846,0.390969,0.138781,0.0981635,inf,inf,inf,inf,1,1,1,1,2,0,2,1,3,1,1,0
52145192,33041221,34.0355986,108.7573236,1.68439,-18.3062,-1.69233,0.186228,0.559512,0.0,-0.250607,-0.703208,0.417748,0.55157,0.167834,-0.187585,-0.113012,2.84647,-0.537476,0.482712,-1.52869,0.0375018,420.693,2.46903,0.2636,0.38861,0.133972,0.0969181,inf,inf,inf,inf,1,1,1,1,2,0,2,1,3,1,1,0
52244631,33041221,34.0355986,108.7573236,1.66352,-18.3779,-1.62622,0.186228,0.559512,0.0,-0.264301,-0.736803,0.40431,0.547789,0.167834,-0.187585,-0.113012,2.51792,-0.618791,1.04929,-1.5291,0.0375018,420.693,2.40292,0.272563,0.390121,0.138837,0.097951,inf,inf,inf,inf,1,1,1,1,2,0,2,1,3,1,1,0
52348798,33041221,34.0355986,108.7573236,1.64004,-18.4557,-1.56267,0.186228,0.559512,0.0,-0.276369,-0.774282,0.395495,0.544754,0.167834,-0.187585,-0.113012,-0.772753,-0.508516,0.382606,-1.52729,0.0375018,420.693,2.33937,0.263323,0.387783,0.133972,0.0967049,inf,inf,inf,inf,1,1,1,1,2,0,2,1,3,1,1,0
52448111,33041221,34.0355986,108.7573236,1.61793,-18.5337,-1.50562,0.186228,0.559512,0.0,-0.278292,-0.80819,0.380562,0.531508,0.167834,-0.187585,-0.113012,-0.369037,-0.284082,-0.599004,-1.52788,0.0375018,420.693,2.28232,0.27229,0.389288,0.139151,0.0977571,inf,inf,inf,inf,1,1,1,1,2,0,2,1,3,1,1,0
52542462,33041221,34.0355986,108.7573236,1.59664,-18.6102,-1.45788,0.186228,0.559512,0.0,-0.293274,-0.832728,0.355587,0.50365,0.167834,-0.187585,-0.113012,1.84882,1.40409,-2.93541,-1.53033,0.0375018,420.693,2.23458,0.262181,0.388728,0.133796,0.0966202,inf,inf,inf,inf,1,1,1,1,2,0,2,1,3,1,1,0
52641781,33041221,34.0355986,108.7573236,1.574,-18.6936,-1.41164,0.186228,0.559512,0.0,-0.287564,-0.868598,0.336036,0.478755,0.167834,-0.187585,-0.113012,0.183354,-0.260376,-1.84688,-1.53343,0.0375018,420.693,2.18834,0.271101,0.390246,0.138635,0.0976574,inf,inf,inf,inf,1,1,1,1,2,0,2,1,3,1,1,0
52751030,33041221,34.0355986,108.7573236,1.55221,-18.7879,-1.36588,0.186228,0.559512,0.0,-0.269751,-0.90507,0.316422,0.451191,0.167834,-0.187585,-0.113012,1.36418,-0.76126,-0.0115441,-1.53699,0.0375018,420.693,2.14258,0.262756,0.388549,0.134442,0.0965815,inf,inf,inf,inf,1,1,1,1,2,0,2,1,3,1,1,0
52840424,33041221,34.0355986,108.7573236,1.5365,-18.8666,-1.33017,0.186228,0.559512,0.0,-0.267951,-0.929372,0.308257,0.437696,0.167834,-0.187585,-0.113012,-1.78553,-2.435,2.42426,-1.54049,0.0375018,420.693,2.10687,0.27082,0.389436,0.138877,0.0974646,inf,inf,inf,inf,1,1,1,1,2,0,2,1,3,1,1,0
52949675,33041221,34.0355986,108.7573236,1.52249,-18.9629,-1.28917,0.186228,0.559512,0.0,-0.190726,-0.94788,0.265817,0.389907,0.167834,-0.187585,-0.113012,0.894072,-0.461327,0.355579,-1.54483,0.0375018,420.693,2.06587,0.262474,0.387762,0.134485,0.0964027,inf,inf,inf,inf,1,1,1,1,2,0,2,1,3,1,1,0
53039125,33041221,34.0355986,108.7573236,1.5145,-19.0419,-1.25854,0.186228,0.559512,0.0,-0.133377,-0.957533,0.243358,0.363257,0.167834,-0.187585,-0.113012,3.10413,-0.215005,-1.01655,-1.54584,0.0375018,420.693,2.03524,0.27054,0.38863,0.138847,0.0972757,inf,inf,inf,inf,1,1,1,1,2,0,2,1,3,1,1,0
53148309,33041221,34.0355986,108.7573236,1.51754,-19.1417,-1.22511,0.186228,0.559512,0.0,-0.0375056,-0.988894,0.222841,0.336296,0.167834,-0.187585,-0.113012,1.27795,-0.141482,-0.280835,-1.54574,0.0375018,420.693,2.00181,0.262197,0.386973,0.134457,0.0962117,inf,inf,inf,inf,1,1,1,1,2,0,2,1,3,1,1,0
53247626,33041221,34.0355986,108.7573236,1.53012,-19.2358,-1.19838,0.186228,0.559512,0.0,0.0548843,-1.00147,0.238801,0.343833,0.167834,-0.187585,-0.113012,6.38625,0.656895,1.31755,-1.54237,0.0375018,420.693,1.97508,0.271191,0.390868,0.139357,0.0974893,inf,inf,inf,inf,1,1,1,1,2,0,2,1,3,1,1,0
53346946,33041221,34.0355986,108.7573236,1.55054,-19.3324,-1.17301,0.186228,0.559512,0.0,0.148199,-1.02167,0.260239,0.354624,0.167834,-0.187585,-0.113012,3.41361,-1.41649,1.43183,-1.53631,0.0375018,420.693,1.94972,0.261927,0.388538,0.134318,0.096265,inf,inf,inf,inf,1,1,1,1,2,0,2,1,3,1,1,0
53446265,33041221,34.0355986,108.7573236,1.57817,-19.4325,-1.15067,0.186228,0.559512,0.0,0.220134,-1.02742,0.26547,0.346462,0.167834,-0.187585,-0.113012,1.02335,-0.87043,1.03521,-1.5343,0.0375018,420.693,1.92737,0.270911,0.390032,0.139035,0.0972868,inf,inf,inf,inf,1,1,1,1,2,0,2,1,3,1,1,0
53545606,33041221,34.0355986,108.7573236,1.61327,-19.5347,-1.13685,0.186228,0.559512,0.0,0.297918,-1.03589,0.263197,0.323859,0.167834,-0.187585,-0.113012,4.2274,0.674332,-0.827029,-1.53115,0.0375018,420.693,1.91355,0.261753,0.387727,0.134026,0.0960787,inf,inf,inf,inf,1,1,1,1,2,0,2,1,3,1,1,0
53644919,33041221,34.0355986,108.7573236,1.65225,-19.6376,-1.12511,0.186228,0.559512,0.0,0.293158,-1.032,0.255437,0.296187,0.167834,-0.187585,-0.113012,-0.111461,-0.735438,0.961941,-1.5304,0.0375018,420.693,1.90181,0.270733,0.3892,0.138742,0.0971022,inf,inf,inf,inf,1,1,1,1,2,0,2,1,3,1,1,0
53744222,33041221,34.0355986,108.7573236,1.68669,-19.74,-1.11534,0.186228,0.559512,0.0,0.322192,-0.981659,0.252207,0.273969,0.167834,-0.187585,-0.113012,0.0578004,-0.0193361,0.52164,-1.52817,0.0375018,420.693,1.89204,0.261374,0.386904,0.133708,0.0958932,inf,inf,inf,inf,1,1,1,1,2,0,2,1,3,1,1,0
53843601,33041221,34.0355986,108.7573236,1.7176,-19.8419,-1.10609,0.186228,0.559512,0.0,0.272278,-0.966153,0.242584,0.247487,0.167834,-0.187585,-0.113012,-6.12886,-1.63501,1.31333,-1.52674,0.0375018,420.693,1.8828,0.270332,0.388364,0.138354,0.0969131,inf,inf,inf,inf,1,1,1,1,2,0,2,1,3,1,1,0
53942859,33041221,34.0355986,108.7573236,1.74266,-19.9354,-1.09766,0.186228,0.559512,0.0,0.245075,-0.904333,0.242614,0.232521,0.167834,-0.187585,-0.113012,-4.03956,-0.709984,1.08776,-1.52157,0.0375018,420.693,1.87436,0.261096,0.388463,0.133398,0.0959576,inf,inf,inf,inf,1,1,1,1,2,0,2,1,3,1,1,0
54042203,33041221,34.0355986,108.7573236,1.76327,-20.0208,-1.09048,0.186228,0.559512,0.0,0.208803,-0.835401,0.238085,0.213321,0.167834,-0.187585,-0.113012,1.56358,-0.142595,0.455967,-1.51906,0.0375018,420.693,1.86718,0.270045,0.389946,0.138054,0.0969784,inf,inf,inf,inf,1,1,1,1,2,0,2,1,3,1,1,0
54141715,33041221,34.0355986,108.7573236,1.78055,-20.1031,-1.08152,0.186228,0.559512,0.0,0.186721,-0.776679,0.23826,0.201981,0.167834,-0.187585,-0.113012,2.56258,1.70262,-1.00551,-1.51835,0.0375018,420.693,1.85822,0.260818,0.387651,0.133051,0.0957888,inf,inf,inf,inf,1,1,1,1,2,0,2,1,3,1,1,0
54245782,33041221,34.0355986,108.7573236,1.79593,-20.1843,-1.07178,0.186228,0.559512,0.0,0.160743,-0.752269,0.244085,0.196892,0.167834,-0.187585,-0.113012,-2.55361,-0.629666,0.627292,-1.51877,0.0375018,420.693,1.84848,0.269758,0.389122,0.137673,0.0967988,inf,inf,inf,inf,1,1,1,1,2,0,2,1,3,1,1,0
54345100,33041221,34.0355986,108.7573236,1.80756,-20.2599,-1.05955,0.186228,0.559512,0.0,0.160948,-0.714753,0.25815,0.20438,0.167834,-0.187585,-0.113012,-1.99632,-0.872087,2.13443,-1.52102,0.0375018,420.693,1.83625,0.260579,0.386853,0.133013,0.095624,inf,inf,inf,inf,1,1,1,1,2,0,2,1,3,1,1,0
54444419,33041221,34.0355986,108.7573236,1.81763,-20.3333,-1.04486,0.186228,0.559512,0.0,0.168693,-0.706848,0.25602,0.197818,0.167834,-0.187585,-0.113012,2.60681,-0.154062,-0.289195,-1.52399,0.0375018,420.693,1.82156,0.26952,0.388304,0.137672,0.0966247,inf,inf,inf,inf,1,1,1,1,2,0,2,1,3,1,1,0
54543738,33041221,34.0355986,108.7573236,1.83708,-20.4042,-1.02668,0.186228,0.559512,0.0,0.238149,-0.717204,0.282732,0.222095,0.167834,-0.187585,-0.113012,5.31765,1.30333,-1.51889,-1.52915,0.0375018,420.693,1.80338,0.260244,0.388404,0.132609,0.0956812,inf,inf,inf,inf,1,1,1,1,2,0,2,1,3,1,1,0
54643077,33041221,34.0355986,108.7573236,1.86584,-20.4747,-1.00831,0.186228,0.559512,0.0,0.274101,-0.75413,0.305382,0.240956,0.167834,-0.187585,-0.113012,4.85723,-1.55603,2.40373,-1.53666,0.0375018,420.693,1.78501,0.269161,0.389869,0.137163,0.0966858,inf,inf,inf,inf,1,1,1,1,2,0,2,1,3,1,1,0
54747345,33041221,34.0355986,108.7573236,1.90503,-20.5574,-0.993435,0.186228,0.559512,0.0,0.330103,-0.783037,0.318728,0.243951,0.167834,-0.187585,-0.113012,2.54936,-0.482724,1.81189,-1.54172,0.0375018,420.693,1.77014,0.26004,0.387582,0.13228,0.0955026,inf,inf,inf,inf,1,1,1,1,2,0,2,1,3,1,1,0
54846660,33041221,34.0355986,108.7573236,1.95036,-20.6416,-0.979334,0.186228,0.559512,0.0,0.378113,-0.815448,0.326886,0.242239,0.167834,-0.187585,-0.113012,-0.138581,0.302001,-0.0517526,-1.54313,0.0375018,420.693,1.75604,0.268941,0.389026,0.136867,0.0965072,inf,inf,inf,inf,1,1,1,1,2,0,2,1,3,1,1,0
54946168,33041221,34.0355986,108.7573236,1.99186,-20.7281,-0.965669,0.186228,0.559512,0.0,0.40119,-0.809162,0.327834,0.233765,0.167834,-0.187585,-0.113012,3.47392,-1.0436,1.20456,-1.54033,0.0375018,420.693,1.74237,0.259723,0.386761,0.132081,0.0953278,inf,inf,inf,inf,1,1,1,1,2,0,2,1,3,1,1,0
55050264,33041221,34.0355986,108.7573236,2.03351,-20.8188,-0.951658,0.186228,0.559512,0.0,0.417147,-0.810772,0.340201,0.236589,0.167834,-0.187585,-0.113012,-1.70083,0.0875725,0.400221,-1.53874,0.0375018,420.693,1.72836,0.26861,0.388201,0.136674,0.0963385,inf,inf,inf,inf,1,1,1,1,2,0,2,1,3,1,1,0
55139687,33041221,34.0355986,108.7573236,2.06998,-20.8933,-0.935265,0.186228,0.559512,0.0,0.422176,-0.769306,0.307099,0.200927,0.167834,-0.187585,-0.113012,4.69508,2.13455,-2.45235,-1.53313,0.0375018,420.693,1.71197,0.258555,0.387699,0.131578,0.0952589,inf,inf,inf,inf,1,1,1,1,2,0,2,1,3,1,1,0
55248903,33041221,34.0355986,108.7573236,2.11273,-20.9767,-0.915943,0.186228,0.559512,0.0,0.397147,-0.727089,0.235428,0.131417,0.167834,-0.187585,-0.113012,1.38194,1.73809,-1.82725,-1.53013,0.0375018,420.693,1.69264,0.268293,0.389778,0.136596,0.0964013,inf,inf,inf,inf,1,1,1,1,2,0,2,1,3,1,1,0
55348222,33041221,34.0355986,108.7573236,2.15564,-21.0504,-0.904115,0.186228,0.559512,0.0,0.383319,-0.688475,0.154395,0.0545891,0.167834,-0.187585,-0.113012,0.328911,-1.59737,0.920653,-1.53285,0.0375018,420.693,1.68082,0.259198,0.387506,0.132057,0.0952361,inf,inf,inf,inf,1,1,1,1,2,0,2,1,3,1,1,0
55447549,33041221,34.0355986,108.7573236,2.19867,-21.1196,-0.89977,0.186228,0.559512,0.0,0.373789,-0.64104,0.0663512,-0.0284215,0.167834,-0.187585,-0.113012,-0.167055,0.59329,-0.156927,-1.53904,0.0375018,420.693,1.67647,0.268091,0.388942,0.137053,0.096238,inf,inf,inf,inf,1,1,1,1,2,0,2,1,3,1,1,0
55546859,33041221,34.0355986,108.7573236,2.24332,-21.1837,-0.906467,0.186228,0.559512,0.0,0.355641,-0.605194,-0.00267934,-0.0964951,0.167834,-0.187585,-0.113012,0.127876,-1.06081,0.941359,-1.54354,0.0375018,420.693,1.68317,0.258922,0.386677,0.132517,0.0950736,inf,inf,inf,inf,1,1,1,1,2,0,2,1,3,1,1,0
55646184,33041221,34.0355986,108.7573236,2.28892,-21.2434,-0.922852,0.186228,0.559512,0.0,0.367613,-0.570181,-0.0723477,-0.168235,0.167834,-0.187585,-0.113012,1.9363,0.345933,-0.42486,-1.54668,0.0375018,420.693,1.69955,0.267835,0.388094,0.137589,0.0960749,inf,inf,inf,inf,1,1,1,1,2,0,2,1,3,1,1,0
55745637,33041221,34.0355986,108.7573236,2.33129,-21.3018,-0.945127,0.186228,0.559512,0.0,0.358955,-0.558067,-0.132523,-0.230078,0.167834,-0.187585,-0.113012,4.38729,0.508953,-0.292822,-1.54958,0.0375018,420.693,1.72183,0.258758,0.385853,0.132997,0.0949224,inf,inf,inf,inf,1,1,1,1,2,0,2,1,3,1,1,0
55844816,33041221,34.0355986,108.7573236,2.37001,-21.3591,-0.971014,0.186228,0.559512,0.0,0.330791,-0.555004,-0.194055,-0.290735,0.167834,-0.187585,-0.113012,-1.8058,-0.370856,0.21523,-1.55312,0.0375018,420.693,1.74772,0.267694,0.38966,0.137977,0.0961686,inf,inf,inf,inf,1,1,1,1,2,0,2,1,3,1,1,0
55944135,33041221,34.0355986,108.7573236,2.40462,-21.4162,-0.999988,0.186228,0.559512,0.0,0.323283,-0.578095,-0.252426,-0.345246,0.167834,-0.187585,-0.113012,2.99425,-0.466898,-0.498754,-1.55533,0.0375018,420.693,1.77669,0.2585,0.387393,0.133176,0.0950043,inf,inf,inf,inf,1,1,1,1,2,0,2,1,3,1,1,0
56048419,33041221,34.0355986,108.7573236,2.43628,-21.4787,-1.03277,0.186228,0.559512,0.0,0.281026,-0.616591,-0.310251,-0.396378,0.167834,-0.187585,-0.113012,-3.7685,-1.78913,0.325987,-1.5562,0.0375018,420.693,1.80947,0.267441,0.388822,0.138117,0.096007,inf,inf,inf,inf,1,1,1,1,2,0,2,1,3,1,1,0
56147738,33041221,34.0355986,108.7573236,2.46236,-21.5413,-1.06445,0.186228,0.559512,0.0,0.253504,-0.654825,-0.37713,-0.451626,0.167834,-0.187585,-0.113012,0.564388,-0.264511,-0.647823,-1.55487,0.0375018,420.693,1.84115,0.25838,0.386578,0.133376,0.0948548,inf,inf,inf,inf,1,1,1,1,2,0,2,1,3,1,1,0
56247104,33041221,34.0355986,108.7573236,2.48499,-21.6089,-1.09852,0.186228,0.559512,0.0,0.222685,-0.725013,-0.431256,-0.491806,0.167834,-0.187585,-0.113012,-1.12403,-1.69649,0.833418,-1.55334,0.0375018,420.693,1.87522,0.267341,0.388005,0.138553,0.0958572,inf,inf,inf,inf,1,1,1,1,2,0,2,1,3,1,1,0
56346376,33041221,34.0355986,108.7573236,2.50774,-21.683,-1.1355,0.186228,0.559512,0.0,0.188371,-0.803249,-0.478371,-0.523952,0.167834,-0.187585,-0.113012,-3.5148,-2.3428,1.71134,-1.55104,0.0375018,420.693,1.9122,0.258251,0.385786,0.13379,0.0947177,inf,inf,inf,inf,1,1,1,1,2,0,2,1,3,1,1,0
56445695,33041221,34.0355986,108.7573236,2.52851,-21.7646,-1.17502,0.186228,0.559512,0.0,0.161337,-0.884701,-0.527865,-0.558301,0.167834,-0.187585,-0.113012,-0.390433,-0.758839,-0.24391,-1.54783,0.0375018,420.693,1.95172,0.267232,0.387195,0.138722,0.0957095,inf,inf,inf,inf,1,1,1,1,2,0,2,1,3,1,1,0
56545114,33041221,34.0355986,108.7573236,2.54997,-21.8575,-1.2238,0.186228,0.559512,0.0,0.140598,-0.981252,-0.583192,-0.604927,0.167834,-0.187585,-0.113012,1.21862,0.515289,-2.67715,-1.54584,0.0375018,420.693,2.0005,0.258059,0.38734,0.133756,0.0948057,inf,inf,inf,inf,1,1,1,1,2,0,2,1,3,1,1,0
56644335,33041221,34.0355986,108.7573236,2.57062,-21.9622,-1.27965,0.186228,0.559512,0.0,0.122234,-1.0967,-0.633867,-0.64971,0.167834,-0.187585,-0.113012,4.63328,0.144305,-2.52773,-1.54592,0.0375018,420.693,2.05635,0.267037,0.388757,0.138693,0.0957994,inf,inf,inf,inf,1,1,1,1,2,0,2,1,3,1,1,0
56743652,33041221,34.0355986,108.7573236,2.57982,-22.0772,-1.34208,0.186228,0.559512,0.0,0.091428,-1.20007,-0.682508,-0.694617,0.167834,-0.187585,-0.113012,2.4945,-0.221253,-1.87209,-1.54723,0.0375018,420.693,2.11878,0.257856,0.386514,0.133792,0.094653,inf,inf,inf,inf,1,1,1,1,2,0,2,1,3,1,1,0
56842970,33041221,34.0355986,108.7573236,2.57916,-22.2011,-1.40942,0.186228,0.559512,0.0,0.037448,-1.25985,-0.736574,-0.744665,0.167834,-0.187585,-0.113012,0.342761,0.746827,-1.29126,-1.54897,0.0375018,420.693,2.18612,0.266833,0.387912,0.138714,0.0956432,inf,inf,inf,inf,1,1,1,1,2,0,2,1,3,1,1,0
56942344,33041221,34.0355986,108.7573236,2.57027,-22.3312,-1.48204,0.186228,0.559512,0.0,-0.0190671,-1.29022,-0.783392,-0.787506,0.167834,-0.187585,-0.113012,-3.80423,0.429442,-2.14253,-1.55107,0.0375018,420.693,2.25874,0.257743,0.385686,0.133874,0.0945149,inf,inf,inf,inf,1,1,1,1,2,0,2,1,3,1,1,0
57041609,33041221,34.0355986,108.7573236,2.55554,-22.4657,-1.55634,0.186228,0.559512,0.0,-0.0526787,-1.308,-0.783748,-0.783775,0.167834,-0.187585,-0.113012,0.165722,-0.00351619,0.443703,-1.5501,0.0375018,420.693,2.33304,0.266727,0.389471,0.138803,0.0957586,inf,inf,inf,inf,1,1,1,1,2,0,2,1,3,1,1,0
57145893,33041221,34.0355986,108.7573236,2.53602,-22.5989,-1.63517,0.186228,0.559512,0.0,-0.111714,-1.26715,-0.780899,-0.777295,0.167834,-0.187585,-0.113012,-5.69888,-1.99283,2.21257,-1.54816,0.0375018,420.693,2.41188,0.257517,0.387225,0.133688,0.0946165,inf,inf,inf,inf,1,1,1,1,2,0,2,1,3,1,1,0
57245212,33041221,34.0355986,108.7573236,2.5133,-22.7173,-1.70934,0.186228,0.559512,0.0,-0.150602,-1.21338,-0.773537,-0.766783,0.167834,-0.187585,-0.113012,-3.69482,1.95961,-1.19562,-1.54437,0.0375018,420.693,2.48604,0.266486,0.388629,0.138277,0.0956034,inf,inf,inf,inf,1,1,1,1,2,0,2,1,3,1,1,0
57344602,33041221,34.0355986,108.7573236,2.48879,-22.8341,-1.78552,0.186228,0.559512,0.0,-0.173552,-1.18133,-0.750168,-0.744476,0.167834,-0.187585,-0.113012,0.732264,0.584868,1.07279,-1.5369,0.0375018,420.693,2.56223,0.257411,0.386414,0.133281,0.0944753,inf,inf,inf,inf,1,1,1,1,2,0,2,1,3,1,1,0
57443877,33041221,34.0355986,108.7573236,2.4654,-22.9482,-1.86109,0.186228,0.559512,0.0,-0.149652,-1.14303,-0.710637,-0.70809,0.167834,-0.187585,-0.113012,3.02058,-0.776717,1.96268,-1.53205,0.0375018,420.693,2.63779,0.266369,0.387816,0.13778,0.0954619,inf,inf,inf,inf,1,1,1,1,2,0,2,1,3,1,1,0
57543171,33041221,34.0355986,108.7573236,2.44678,-23.0618,-1.9357,0.186228,0.559512,0.0,-0.160288,-1.11756,-0.682693,-0.685507,0.167834,-0.187585,-0.113012,-1.95072,-0.276795,0.233034,-1.53014,0.0375018,420.693,2.7124,0.257096,0.385603,0.132355,0.0943027,inf,inf,inf,inf,1,1,1,1,2,0,2,1,3,1,1,0
57647454,33041221,34.0355986,108.7573236,2.43358,-23.1816,-2.01222,0.186228,0.559512,0.0,-0.136132,-1.10815,-0.642585,-0.652156,0.167834,-0.187585,-0.113012,-3.38619,-0.693106,0.907156,-1.53083,0.0375018,420.693,2.78892,0.266003,0.386992,0.136685,0.0952748,inf,inf,inf,inf,1,1,1,1,2,0,2,1,3,1,1,0
57746773,33041221,34.0355986,108.7573236,2.42438,-23.2959,-2.08143,0.186228,0.559512,0.0,-0.0959853,-1.06674,-0.594149,-0.610106,0.167834,-0.187585,-0.113012,1.57491,-0.267924,1.888,-1.53477,0.0375018,420.693,2.85813,0.25695,0.387161,0.131542,0.0943968,inf,inf,inf,inf,1,1,1,1,2,0,2,1,3,1,1,0
57846117,33041221,34.0355986,108.7573236,2.41799,-23.407,-2.14486,0.186228,0.559512,0.0,-0.0720179,-1.04157,-0.551162,-0.571965,0.167834,-0.187585,-0.113012,-0.937928,0.254512,0.143777,-1.54247,0.0375018,420.693,2.92156,0.265828,0.388558,0.136065,0.0953815,inf,inf,inf,inf,1,1,1,1,2,0,2,1,3,1,1,0
57945411,33041221,34.0355986,108.7573236,2.41659,-23.5162,-2.20443,0.186228,0.559512,0.0,-0.0639467,-1.01464,-0.498239,-0.52392,0.167834,-0.187585,-0.113012,-2.63157,0.621562,0.699377,-1.55272,0.0375018,420.693,2.98113,0.256809,0.386342,0.13097,0.0942513,inf,inf,inf,inf,1,1,1,1,2,0,2,1,3,1,1,0
58044731,33041221,34.0355986,108.7573236,2.4167,-23.6213,-2.25545,0.186228,0.559512,0.0,-0.0565593,-0.980976,-0.407779,-0.436326,0.167834,-0.187585,-0.113012,4.97034,0.361821,2.84519,-1.56096,0.0375018,420.693,3.03215,0.265659,0.38773,0.135301,0.0952265,inf,inf,inf,inf,1,1,1,1,2,0,2,1,3,1,1,0
58144094,33041221,34.0355986,108.7573236,2.41347,-23.7207,-2.29487,0.186228,0.559512,0.0,-0.0741843,-0.934782,-0.305445,-0.334741,0.167834,-0.187585,-0.113012,2.33726,0.255901,0.79136,-1.5673,0.0375018,420.693,3.07157,0.256636,0.385525,0.130224,0.0940968,inf,inf,inf,inf,1,1,1,1,2,0,2,1,3,1,1,0
58248337,33041221,34.0355986,108.7573236,2.40728,-23.8203,-2.32103,0.186228,0.559512,0.0,-0.104261,-0.905017,-0.195852,-0.22237,0.167834,-0.187585,-0.113012,-2.55587,1.02815,1.17114,-1.56865,0.0375018,420.693,3.09773,0.265443,0.389273,0.134345,0.0953099,inf,inf,inf,inf,1,1,1,1,2,0,2,1,3,1,1,0
58347652,33041221,34.0355986,108.7573236,2.3983,-23.912,-2.33489,0.186228,0.559512,0.0,-0.11395,-0.868102,-0.120892,-0.143067,0.167834,-0.187585,-0.113012,4.58475,1.49678,0.838461,-1.56664,0.0375018,420.693,3.11159,0.256429,0.387047,0.129283,0.094181,inf,inf,inf,inf,1,1,1,1,2,0,2,1,3,1,1,0
58447161,33041221,34.0355986,108.7573236,2.38705,-24.0013,-2.33951,0.186228,0.559512,0.0,-0.132197,-0.861367,-0.0447979,-0.0610158,0.167834,-0.187585,-0.113012,0.193388,-1.03393,1.04493,-1.56608,0.0375018,420.693,3.11621,0.265192,0.388424,0.13357,0.0951563,inf,inf,inf,inf,1,1,1,1,2,0,2,1,3,1,1,0
58546290,33041221,34.0355986,108.7573236,2.37638,-24.0869,-2.33353,0.186228,0.559512,0.0,-0.106528,-0.856345,0.0205359,0.0124455,0.167834,-0.187585,-0.113012,-2.10846,1.16428,-1.21587,-1.56472,0.0375018,420.693,3.11023,0.256226,0.386217,0.128826,0.0940371,inf,inf,inf,inf,1,1,1,1,2,0,2,1,3,1,1,0
58645611,33041221,34.0355986,108.7573236,2.36583,-24.1705,-2.32166,0.186228,0.559512,0.0,-0.110408,-0.856857,0.0759506,0.0752319,0.167834,-0.187585,-0.113012,-0.650501,-0.980567,0.98795,-1.5619,0.0375018,420.693,3.09836,0.264952,0.387591,0.132958,0.0950053,inf,inf,inf,inf,1,1,1,1,2,0,2,1,3,1,1,0
58749895,33041221,34.0355986,108.7573236,2.35641,-24.2633,-2.30601,0.186228,0.559512,0.0,-0.0559568,-0.874993,0.146164,0.149474,0.167834,-0.187585,-0.113012,3.59938,-0.230551,2.08636,-1.55593,0.0375018,420.693,3.08271,0.256083,0.385407,0.128407,0.093908,inf,inf,inf,inf,1,1,1,1,2,0,2,1,3,1,1,0
58849213,33041221,34.0355986,108.7573236,2.35093,-24.3538,-2.28655,0.186228,0.559512,0.0,-0.0490057,-0.884068,0.192298,0.197905,0.167834,-0.187585,-0.113012,-2.33744,0.23227,0.0349566,-1.54973,0.0375018,420.693,3.06326,0.26479,0.386765,0.132713,0.094883,inf,inf,inf,inf,1,1,1,1,2,0,2,1,3,1,1,0
58948550,33041221,34.0355986,108.7573236,2.34521,-24.444,-2.26511,0.186228,0.559512,0.0,-0.0160359,-0.896832,0.212659,0.21827,0.167834,-0.187585,-0.113012,-0.6318,1.05111,-2.13719,-1.54309,0.0375018,420.693,3.04181,0.255852,0.386945,0.128274,0.094018,inf,inf,inf,inf,1,1,1,1,2,0,2,1,3,1,1,0
59047850,33041221,34.0355986,108.7573236,2.3393,-24.5332,-2.24372,0.186228,0.559512,0.0,-0.0378992,-0.892639,0.233787,0.237977,0.167834,-0.187585,-0.113012,-3.42396,-1.43774,2.23587,-1.53771,0.0375018,420.693,3.02042,0.264547,0.388319,0.132584,0.0949946,inf,inf,inf,inf,1,1,1,1,2,0,2,1,3,1,1,0
59147171,33041221,34.0355986,108.7573236,2.32896,-24.6175,-2.22241,0.186228,0.559512,0.0,-0.0549597,-0.863093,0.241765,0.243794,0.167834,-0.187585,-0.113012,-4.34671,-0.157308,0.724727,-1.52923,0.0375018,420.693,2.99911,0.255615,0.386119,0.128169,0.093889,inf,inf,inf,inf,1,1,1,1,2,0,2,1,3,1,1,0
59246695,33041221,34.0355986,108.7573236,2.31674,-24.6987,-2.2016,0.186228,0.559512,0.0,-0.0890744,-0.830639,0.2493,0.247898,0.167834,-0.187585,-0.113012,-2.92816,-0.193956,1.68342,-1.52147,0.0375018,420.693,2.9783,0.264302,0.387477,0.132602,0.0948616,inf,inf,inf,inf,1,1,1,1,2,0,2,1,3,1,1,0
59345810,33041221,34.0355986,108.7573236,2.30107,-24.7746,-2.18174,0.186228,0.559512,0.0,-0.120777,-0.786927,0.253774,0.247477,0.167834,-0.187585,-0.113012,0.100579,0.901988,-0.00866233,-1.51651,0.0375018,420.693,2.95844,0.255368,0.385296,0.128216,0.0937596,inf,inf,inf,inf,1,1,1,1,2,0,2,1,3,1,1,0
59445126,33041221,34.0355986,108.7573236,2.2841,-24.8483,-2.16283,0.186228,0.559512,0.0,-0.138779,-0.768242,0.241769,0.230424,0.167834,-0.187585,-0.113012,-2.36363,0.153354,0.806776,-1.51427,0.0375018,420.693,2.93953,0.264055,0.386645,0.132689,0.0947274,inf,inf,inf,inf,1,1,1,1,2,0,2,1,3,1,1,0
59544456,33041221,34.0355986,108.7573236,2.26358,-24.9208,-2.14282,0.186228,0.559512,0.0,-0.154036,-0.747351,0.241573,0.227783,0.167834,-0.187585,-0.113012,3.95956,0.454133,2.07454,-1.51431,0.0375018,420.693,2.91952,0.255026,0.386819,0.128259,0.0938592,inf,inf,inf,inf,1,1,1,1,2,0,2,1,3,1,1,0
59643764,33041221,34.0355986,108.7573236,2.24059,-24.9928,-2.11913,0.186228,0.559512,0.0,-0.145803,-0.76,0.252304,0.239503,0.167834,-0.187585,-0.113012,2.18681,-0.610209,1.93154,-1.51607,0.0375018,420.693,2.89583,0.263707,0.388184,0.132848,0.0948326,inf,inf,inf,inf,1,1,1,1,2,0,2,1,3,1,1,0
59743090,33041221,34.0355986,108.7573236,2.22377,-25.0671,-2.09405,0.186228,0.559512,0.0,-0.118528,-0.778179,0.259968,0.248595,0.167834,-0.187585,-0.113012,2.3535,-1.28665,2.15576,-1.51613,0.0375018,420.693,2.87075,0.254641,0.385991,0.128291,0.0937213,inf,inf,inf,inf,1,1,1,1,2,0,2,1,3,1,1,0
59847370,33041221,34.0355986,108.7573236,2.2128,-25.1494,-2.06748,0.186228,0.559512,0.0,-0.0920105,-0.811365,0.264706,0.253658,0.167834,-0.187585,-0.113012,-2.41988,-0.549446,-0.786887,-1.51472,0.0375018,420.693,2.84418,0.263308,0.387347,0.132781,0.0946927,inf,inf,inf,inf,1,1,1,1,2,0,2,1,3,1,1,0
59946721,33041221,34.0355986,108.7573236,2.20257,-25.2298,-2.04145,0.186228,0.559512,0.0,-0.0440808,-0.85394,0.271677,0.260804,0.167834,-0.187585,-0.113012,-0.815421,-0.599621,-0.236271,-1.51263,0.0375018,420.693,2.81815,0.254453,0.385181,0.128397,0.0936046,inf,inf,inf,inf,1,1,1,1,2,0,2,1,3,1,1,0
60046159,33041221,34.0355986,108.7573236,2.19655,-25.3146,-2.01521,0.186228,0.559512,0.0,0.0408423,-0.88268,0.293299,0.281458,0.167834,-0.187585,-0.113012,3.24037,-0.0037536,1.21627,-1.50731,0.0375018,420.693,2.79191,0.263134,0.386537,0.133047,0.0945766,inf,inf,inf,inf,1,1,1,1,2,0,2,1,3,1,1,0
60145325,33041221,34.0355986,108.7573236,2.19586,-25.4027,-1.98795,0.186228,0.559512,0.0,0.0685241,-0.938344,0.30565,0.292723,0.167834,-0.187585,-0.113012,-4.57036,-2.40677,0.7778,-1.50312,0.0375018,420.693,2.76466,0.25417,0.384384,0.128551,0.0934803,inf,inf,inf,inf,1,1,1,1,2,0,2,1,3,1,1,0
60244644,33041221,34.0355986,108.7573236,2.20157,-25.4954,-1.95795,0.186228,0.559512,0.0,0.149444,-0.96122,0.31966,0.306849,0.167834,-0.187585,-0.113012,7.36934,1.81994,0.905051,-1.49977,0.0375018,420.693,2.73465,0.262847,0.388095,0.133095,0.0946923,inf,inf,inf,inf,1,1,1,1,2,0,2,1,3,1,1,0
60348929,33041221,34.0355986,108.7573236,2.21345,-25.5936,-1.92907,0.186228,0.559512,0.0,0.197988,-0.999577,0.345671,0.328732,0.167834,-0.187585,-0.113012,0.530982,-2.09293,2.28484,-1.50089,0.0375018,420.693,2.70577,0.253982,0.385916,0.128684,0.093602,inf,inf,inf,inf,1,1,1,1,2,0,2,1,3,1,1,0
60448247,33041221,34.0355986,108.7573236,2.2299,-25.6898,-1.9016,0.186228,0.559512,0.0,0.237579,-1.02519,0.348841,0.326783,0.167834,-0.187585,-0.113012,3.28912,0.816018,0.841328,-1.5038,0.0375018,420.693,2.67831,0.262666,0.387266,0.133247,0.0945706,inf,inf,inf,inf,1,1,1,1,2,0,2,1,3,1,1,0
60547568,33041221,34.0355986,108.7573236,2.2513,-25.7873,-1.86956,0.186228,0.559512,0.0,0.305049,-1.03755,0.350103,0.327601,0.167834,-0.187585,-0.113012,3.27602,0.222151,0.303007,-1.50709,0.0375018,420.693,2.64626,0.253691,0.385093,0.128879,0.0934767,inf,inf,inf,inf,1,1,1,1,2,0,2,1,3,1,1,0
60646885,33041221,34.0355986,108.7573236,2.27782,-25.8867,-1.8352,0.186228,0.559512,0.0,0.325868,-1.05587,0.35519,0.33376,0.167834,-0.187585,-0.113012,-3.75406,-0.287022,-2.50468,-1.51029,0.0375018,420.693,2.61191,0.262378,0.386442,0.133453,0.0944517,inf,inf,inf,inf,1,1,1,1,2,0,2,1,3,1,1,0
60746209,33041221,34.0355986,108.7573236,2.30621,-25.9854,-1.79821,0.186228,0.559512,0.0,0.352362,-1.09398,0.369321,0.350968,0.167834,-0.187585,-0.113012,-1.98225,-1.56508,0.844902,-1.51372,0.0375018,420.693,2.57491,0.2536,0.384303,0.129145,0.0933884,inf,inf,inf,inf,1,1,1,1,2,0,2,1,3,1,1,0
60845670,33041221,34.0355986,108.7573236,2.33842,-26.0866,-1.76562,0.186228,0.559512,0.0,0.406523,-1.09108,0.364844,0.344045,0.167834,-0.187585,-0.113012,1.08148,1.09296,-0.29958,-1.51456,0.0375018,420.693,2.54232,0.262306,0.388014,0.133646,0.0946024,inf,inf,inf,inf,1,1,1,1,2,0,2,1,3,1,1,0
60944842,33041221,34.0355986,108.7573236,2.37973,-26.1928,-1.73667,0.186228,0.559512,0.0,0.441357,-1.11631,0.364901,0.33843,0.167834,-0.187585,-0.113012,2.18136,-0.820147,0.0729544,-1.51443,0.0375018,420.693,2.51337,0.253571,0.38586,0.129325,0.0935358,inf,inf,inf,inf,1,1,1,1,2,0,2,1,3,1,1,0
61044162,33041221,34.0355986,108.7573236,2.42599,-26.3032,-1.70914,0.186228,0.559512,0.0,0.476467,-1.13125,0.349309,0.317005,0.167834,-0.187585,-0.113012,2.17239,0.931426,-2.64503,-1.51259,0.0375018,420.693,2.48585,0.2623,0.387219,0.133955,0.094515,inf,inf,inf,inf,1,1,1,1,2,0,2,1,3,1,1,0
61148446,33041221,34.0355986,108.7573236,2.47526,-26.4195,-1.68041,0.186228,0.559512,0.0,0.481217,-1.14563,0.338118,0.301711,0.167834,-0.187585,-0.113012,4.01859,-0.764379,1.19129,-1.51102,0.0375018,420.693,2.45712,0.253541,0.385068,0.129532,0.0934382,inf,inf,inf,inf,1,1,1,1,2,0,2,1,3,1,1,0
61247766,33041221,34.0355986,108.7573236,2.52096,-26.5311,-1.65562,0.186228,0.559512,0.0,0.481748,-1.14182,0.319736,0.279228,0.167834,-0.187585,-0.113012,-0.496175,-0.774877,-0.315802,-1.50733,0.0375018,420.693,2.43233,0.262286,0.38642,0.134136,0.0944173,inf,inf,inf,inf,1,1,1,1,2,0,2,1,3,1,1,0
61347085,33041221,34.0355986,108.7573236,2.56894,-26.641,-1.63755,0.186228,0.559512,0.0,0.440947,-1.13267,0.295109,0.246388,0.167834,-0.187585,-0.113012,-2.73871,0.0476798,0.324776,-1.50829,0.0375018,420.693,2.41426,0.253693,0.384297,0.130051,0.0933672,inf,inf,inf,inf,1,1,1,1,2,0,2,1,3,1,1,0
61441433,33041221,34.0355986,108.7573236,2.61247,-26.7425,-1.62404,0.186228,0.559512,0.0,0.437856,-1.07115,0.271627,0.214104,0.167834,-0.187585,-0.113012,-0.830223,-0.493698,0.526645,-1.50693,0.0375018,420.693,2.40074,0.261576,0.387394,0.134247,0.0944421,inf,inf,inf,inf,1,1,1,1,2,0,2,1,3,1,1,0
61540756,33041221,34.0355986,108.7573236,2.65379,-26.8447,-1.6139,0.186228,0.559512,0.0,0.374301,-1.02149,0.21456,0.149068,0.167834,-0.187585,-0.113012,-0.180053,0.374315,-0.484748,-1.50746,0.0375018,420.693,2.3906,0.252997,0.385265,0.129802,0.0933776,inf,inf,inf,inf,1,1,1,1,2,0,2,1,3,1,1,0
61650100,33041221,34.0355986,108.7573236,2.69152,-26.9513,-1.60979,0.186228,0.559512,0.0,0.284907,-0.945115,0.187378,0.11186,0.167834,-0.187585,-0.113012,-2.25509,1.21653,1.06255,-1.50708,0.0375018,420.693,2.38649,0.262667,0.387237,0.135207,0.0945036,inf,inf,inf,inf,1,1,1,1,2,0,2,1,3,1,1,0
61749326,33041221,34.0355986,108.7573236,2.71508,-27.036,-1.60875,0.186228,0.559512,0.0,0.225751,-0.871691,0.162085,0.0787169,0.167834,-0.187585,-0.113012,3.90653,0.826791,0.933117,-1.50421,0.0375018,420.693,2.38546,0.254,0.385119,0.130837,0.0934441,inf,inf,inf,inf,1,1,1,1,2,0,2,1,3,1,1,0
61848645,33041221,34.0355986,108.7573236,2.73074,-27.1147,-1.61093,0.186228,0.559512,0.0,0.182492,-0.818874,0.151394,0.0593836,0.167834,-0.187585,-0.113012,4.95014,3.42326,0.158019,-1.49806,0.0375018,420.693,2.38763,0.262851,0.386491,0.135486,0.0944178,inf,inf,inf,inf,1,1,1,1,2,0,2,1,3,1,1,0
61947964,33041221,34.0355986,108.7573236,2.74626,-27.1882,-1.61367,0.186228,0.559512,0.0,0.102278,-0.785244,0.138688,0.0390423,0.167834,-0.187585,-0.113012,-4.66315,0.187015,-2.54253,-1.4941,0.0375018,420.693,2.39038,0.254152,0.384379,0.131041,0.0933687,inf,inf,inf,inf,1,1,1,1,2,0,2,1,3,1,1,0
62047283,33041221,34.0355986,108.7573236,2.75773,-27.2582,-1.6162,0.186228,0.559512,0.0,0.0382195,-0.762654,0.141837,0.0359419,0.167834,-0.187585,-0.113012,-1.42769,0.992107,-0.0161075,-1.49606,0.0375018,420.693,2.39291,0.263021,0.385737,0.135683,0.0943259,inf,inf,inf,inf,1,1,1,1,2,0,2,1,3,1,1,0
62146648,33041221,34.0355986,108.7573236,2.75948,-27.3315,-1.61264,0.186228,0.559512,0.0,-0.0198719,-0.77777,0.133815,0.0287738,0.167834,-0.187585,-0.113012,-2.81721,-2.25188,1.19458,-1.49948,0.0375018,420.693,2.38934,0.254326,0.383639,0.131016,0.0932937,inf,inf,inf,inf,1,1,1,1,2,0,2,1,3,1,1,0
62245920,33041221,34.0355986,108.7573236,2.7557,-27.4077,-1.61105,0.186228,0.559512,0.0,-0.0536222,-0.792813,0.111549,0.00660485,0.167834,-0.187585,-0.113012,1.13681,0.598097,-2.42652,-1.50277,0.0375018,420.693,2.38775,0.263206,0.384997,0.135685,0.0942829,inf,inf,inf,inf,1,1,1,1,2,0,2,1,3,1,1,0
62345240,33041221,34.0355986,108.7573236,2.74693,-27.4826,-1.60852,0.186228,0.559512,0.0,-0.105511,-0.822323,0.115897,0.0126062,0.167834,-0.187585,-0.113012,-5.1344,-2.25646,1.03038,-1.50449,0.0375018,420.693,2.38522,0.254483,0.385232,0.131112,0.0934574,inf,inf,inf,inf,1,1,1,1,2,0,2,1,3,1,1,0
62444575,33041221,34.0355986,108.7573236,2.73376,-27.5594,-1.60522,0.186228,0.559512,0.0,-0.11584,-0.827373,0.115591,0.014734,0.167834,-0.187585,-0.113012,3.71936,-0.345081,0.0590017,-1.50502,0.0375018,420.693,2.38192,0.263373,0.386607,0.135738,0.094431,inf,inf,inf,inf,1,1,1,1,2,0,2,1,3,1,1,0
