timestamp,ref_timestamp,ref_lat,ref_lon,x,y,z,delta_xy[0],delta_xy[1],delta_z,vx,vy,vz,z_deriv,delta_vxy[0],delta_vxy[1],delta_vz,ax,ay,az,heading,delta_heading,ref_alt,dist_bottom,eph,epv,evh,evv,vxy_max,vz_max,hagl_min,hagl_max,xy_valid,z_valid,v_xy_valid,v_z_valid,xy_reset_counter,z_reset_counter,vxy_reset_counter,vz_reset_counter,heading_reset_counter,xy_global,z_global,dist_bottom_valid
14576691,0,0.0,0.0,0.0,0.0,0.6470612,8.477813e-05,6.837378e-05,0.0,0.27331832,0.14566602,-0.0038515045,-0.010516759,0.017076872,0.013772542,0.0,0.38291124,0.010414493,-0.012315047,-1.7207319,0.02297636,0.0,0.110878706,0.45180273,0.7308152,0.4217863,0.32110384,inf,inf,inf,inf,0,1,0,1,1,0,1,0,2,0,0,1
14586665,0,0.0,0.0,0.0,0.0,0.6471017,8.477813e-05,6.837378e-05,0.0,0.2729621,0.14606376,-0.0033579858,-0.009884121,0.017076872,0.013772542,0.0,0.22009426,0.47279796,-0.17837079,-1.7205728,0.02297636,0.0,0.1056391,0.45551857,0.7179188,0.4233915,0.31689876,inf,inf,inf,inf,0,1,0,1,1,0,1,0,2,0,0,1
14675955,0,0.0,0.0,0.0,0.0,0.64764583,8.477813e-05,6.837378e-05,0.0,0.26050338,0.14811766,-0.002326174,-0.007533159,0.017076872,0.013772542,0.0,0.22186565,0.75352556,0.0148772085,-1.7206837,0.02297636,0.0,0.10608941,0.4068638,0.72638464,0.38045397,0.31765202,inf,inf,inf,inf,0,1,0,1,1,0,1,0,2,0,0,1
14775247,0,0.0,0.0,0.0,0.0,0.6478321,8.477813e-05,6.837378e-05,0.0,0.26610515,0.14548914,0.0012979448,-0.0030145717,0.017076872,0.013772542,0.0,1.487431,-2.5188143,1.1746088,-1.7202736,0.02297636,0.0,0.10538232,0.44051212,0.72200435,0.395144,0.3143127,inf,inf,inf,inf,0,1,0,1,1,0,1,0,2,0,0,1
14874633,0,0.0,0.0,0.0,0.0,0.6483292,8.477813e-05,6.837378e-05,0.0,0.262415,0.14173588,-0.0021677113,-0.0054896763,0.017076872,0.013772542,0.0,-0.49437422,-0.1498391,1.5947988,-1.7195824,0.02297636,0.0,0.10141504,0.39775336,0.7176343,0.357944,0.31092617,inf,inf,inf,inf,0,1,0,1,1,0,1,0,2,0,0,1
14978806,0,0.0,0.0,0.0,0.0,0.64694387,8.477813e-05,6.837378e-05,0.0,0.25708848,0.14243968,-0.0062643476,-0.010606321,0.017076872,0.013772542,0.0,0.20097737,-0.31549832,0.19841197,-1.7182392,0.02297636,0.0,0.1,0.4292749,0.71341753,0.37185964,0.30769387,inf,inf,inf,inf,0,1,0,1,1,0,1,0,2,0,0,1
15078098,0,0.0,0.0,0.0,0.0,0.64097375,8.477813e-05,6.837378e-05,0.0,0.25673848,0.14168431,-0.0043885354,-0.013907033,0.017076872,0.013772542,0.0,0.38853562,0.2981887,-0.09499779,-1.7170253,0.02297636,0.0,0.1,0.389668,0.70920897,0.34023404,0.30444658,inf,inf,inf,inf,0,1,0,1,1,0,1,0,2,0,0,1
15177385,0,0.0,0.0,0.0,0.0,0.63569534,8.477813e-05,6.837378e-05,0.0,0.25852358,0.14183514,-0.0074136197,-0.020492485,0.017076872,0.013772542,0.0,0.36339444,-0.41629815,0.22111684,-1.7142118,0.02297636,0.0,0.1,0.419436,0.705243,0.3538136,0.3013444,inf,inf,inf,inf,0,1,0,1,1,0,1,0,2,0,0,1
15276678,0,0.0,0.0,0.0,0.0,0.63118386,8.477813e-05,6.837378e-05,0.0,0.25649405,0.14482087,-0.008841975,-0.02407666,0.017076872,0.013772542,0.0,0.3094271,0.24180962,-0.14161971,-1.7133348,0.02297636,0.0,0.1,0.38174585,0.7158967,0.32534152,0.30258805,inf,inf,inf,inf,0,1,0,1,1,0,1,0,2,0,0,1
15375987,0,0.0,0.0,0.0,0.0,0.63240224,8.477813e-05,6.837378e-05,0.0,0.2588101,0.1452711,-0.0067743273,-0.018201862,0.017076872,0.013772542,0.0,-0.59348243,0.42815402,0.3002889,-1.7117119,0.02297636,0.0,0.11066514,0.40994883,0.711804,0.33893394,0.2994514,inf,inf,inf,inf,0,1,0,1,1,0,1,0,2,0,0,1
15475266,0,0.0,0.0,0.0,0.0,0.6333745,8.477813e-05,6.837378e-05,0.0,0.26681763,0.14719313,-0.010113118,-0.018512132,0.017076872,0.013772542,0.0,0.4269219,0.177349,-0.107491344,-1.7087954,0.02297636,0.0,0.105902076,0.37417158,0.70771694,0.31429887,0.2963154,inf,inf,inf,inf,0,1,0,1,1,0,1,0,2,0,0,1
15574559,0,0.0,0.0,0.0,0.0,0.6317203,8.477813e-05,6.837378e-05,0.0,0.26740137,0.14788924,-0.010425286,-0.018709177,0.017076872,0.013772542,0.0,1.1321554,0.17607047,-0.73441136,-1.7072347,0.02297636,0.0,0.1039359,0.4010803,0.70374906,0.32835078,0.2932612,inf,inf,inf,inf,0,1,0,1,1,0,1,0,2,0,0,1
15673913,0,0.0,0.0,0.0,0.0,0.6306917,8.477813e-05,6.837378e-05,0.0,0.27086166,0.15169793,-0.0060166907,-0.013561866,0.017076872,0.013772542,0.0,0.029395392,-0.2709438,-0.15242359,-1.7062277,0.02297636,0.0,0.100836396,0.36716157,0.6995943,0.30730757,0.29012266,inf,inf,inf,inf,0,1,0,1,1,0,1,0,2,0,0,1
15778108,0,0.0,0.0,0.0,0.0,0.6290131,8.477813e-05,6.837378e-05,0.0,0.27520096,0.1531217,-0.00577425,-0.013244486,0.017076872,0.013772542,0.0,-0.2518339,-0.45476055,0.10732945,-1.7044467,0.02297636,0.0,0.10330725,0.3930749,0.709726,0.3222289,0.2911924,inf,inf,inf,inf,0,1,0,1,1,0,1,0,2,0,0,1
15877452,0,0.0,0.0,0.0,0.0,0.6272752,8.477813e-05,6.837378e-05,0.0,0.28387907,0.16041584,-0.006992775,-0.014533571,0.017076872,0.013772542,0.0,-0.16348639,0.07798247,0.46693027,-1.7025521,0.02297636,0.0,0.1,0.36152366,0.70547426,0.30564857,0.2880939,inf,inf,inf,inf,0,1,0,1,1,0,1,0,2,0,0,1
15981659,0,0.0,0.0,0.0,0.0,0.62385666,8.477813e-05,6.837378e-05,0.0,0.28617972,0.16254452,-0.007904313,-0.01700729,0.017076872,0.013772542,0.0,-0.046657342,0.19869937,0.36355123,-1.7010392,0.02297636,0.0,0.1,0.3868672,0.70144933,0.32156286,0.28507835,inf,inf,inf,inf,0,1,0,1,1,0,1,0,2,0,0,1
16080954,0,0.0,0.0,0.0,0.0,0.62007135,8.477813e-05,6.837378e-05,0.0,0.29209605,0.16487643,-0.009797163,-0.020692062,0.017076872,0.013772542,0.0,-0.20499964,0.23578776,0.12094808,-1.7001083,0.02297636,0.0,0.1,0.35725638,0.69743305,0.3072507,0.28206533,inf,inf,inf,inf,0,1,0,1,1,0,1,0,2,0,0,1
16180246,0,0.0,0.0,0.0,0.0,0.6153358,8.477813e-05,6.837378e-05,0.0,0.29806742,0.1662172,-0.009785637,-0.023088481,0.017076872,0.013772542,0.0,0.42697716,0.7109624,-0.08209301,-1.6993624,0.02297636,0.0,0.1,0.38237378,0.6935333,0.3253114,0.27916288,inf,inf,inf,inf,0,1,0,1,1,0,1,0,2,0,0,1
16274571,0,0.0,0.0,0.0,0.0,0.61338073,8.477813e-05,6.837378e-05,0.0,0.30764306,0.16894893,-0.011533295,-0.0243772,0.017076872,0.013772542,0.0,0.4468442,0.11294003,0.16769965,-1.6974291,0.02297636,0.0,0.10468024,0.406634,0.6874206,0.34162316,0.2758006,inf,inf,inf,inf,0,1,0,1,1,0,1,0,2,0,0,1
16373869,0,0.0,0.0,0.0,0.0,0.6113185,8.477813e-05,6.837378e-05,0.0,0.30813113,0.16953392,-0.012625396,-0.025070842,0.017076872,0.013772542,0.0,1.3562847,0.36356696,-0.50800496,-1.6960965,0.02297636,0.0,0.10354924,0.3769643,0.6836441,0.3299129,0.27292082,inf,inf,inf,inf,0,1,0,1,1,0,1,0,2,0,0,1
16483205,0,0.0,0.0,0.0,0.0,0.608979,8.477813e-05,6.837378e-05,0.0,0.31767482,0.17408234,-0.012242811,-0.024396315,0.017076872,0.013772542,0.0,0.7640478,0.36079776,-0.04395327,-1.694895,0.02297636,0.0,0.10411942,0.40694627,0.6823214,0.35216263,0.27065337,inf,inf,inf,inf,0,1,0,1,1,0,1,0,2,0,0,1
16572454,0,0.0,0.0,0.0,0.0,0.6091331,8.477813e-05,6.837378e-05,0.0,0.31302464,0.17482693,-0.0055085155,-0.015465145,0.017076872,0.013772542,0.0,-0.554472,-0.7080215,0.6134819,-1.6946335,0.02297636,0.0,0.10894996,0.3751045,0.6895439,0.33938754,0.27105996,inf,inf,inf,inf,0,1,0,1,1,0,1,0,2,0,0,1
16681677,0,0.0,0.0,0.0,0.0,0.6119554,8.477813e-05,6.837378e-05,0.0,0.3185767,0.17506722,-0.0053587854,-0.01063988,0.017076872,0.013772542,0.0,-0.31449798,-0.8002703,-0.17335857,-1.6933879,0.02297636,0.0,0.1107887,0.4057031,0.6880912,0.36204058,0.26871637,inf,inf,inf,inf,0,1,0,1,1,0,1,0,2,0,0,1
16780973,0,0.0,0.0,0.0,0.0,0.61300796,8.477813e-05,6.837378e-05,0.0,0.3211382,0.17999704,-0.003830453,-0.007054129,0.017076872,0.013772542,0.0,0.14231999,-0.006614063,0.33715588,-1.6920102,0.02297636,0.0,0.10661048,0.37689593,0.684418,0.35137755,0.26594493,inf,inf,inf,inf,0,1,0,1,1,0,1,0,2,0,0,1
16880266,0,0.0,0.0,0.0,0.0,0.6126887,8.477813e-05,6.837378e-05,0.0,0.32504764,0.1835945,-0.005379075,-0.008353399,0.017076872,0.013772542,0.0,0.7273622,0.6295991,0.042074367,-1.6908476,0.02297636,0.0,0.1,0.4055759,0.68077576,0.37302274,0.2632204,inf,inf,inf,inf,0,1,0,1,1,0,1,0,2,0,0,1
16979556,0,0.0,0.0,0.0,0.0,0.61338806,8.477813e-05,6.837378e-05,0.0,0.3192208,0.17992352,-0.0033919178,-0.0051342044,0.017076872,0.013772542,0.0,-0.2009776,0.1846326,0.15671806,-1.6905348,0.02297636,0.0,0.11039585,0.37684542,0.6771604,0.36161414,0.26047885,inf,inf,inf,inf,0,1,0,1,1,0,1,0,2,0,0,1
17078851,0,0.0,0.0,0.0,0.0,0.61769533,8.477813e-05,6.837378e-05,0.0,0.3210406,0.18111064,-5.6218487e-05,0.0026029628,0.017076872,0.013772542,0.0,-0.71534866,0.5757029,0.045918666,-1.6898729,0.02297636,0.0,0.11772871,0.40640664,0.6736004,0.38422483,0.25782406,inf,inf,inf,inf,0,1,0,1,1,0,1,0,2,0,0,1
17178143,0,0.0,0.0,0.0,0.0,0.6236386,8.477813e-05,6.837378e-05,0.0,0.32222465,0.17817327,0.0015319199,0.0093792025,0.017076872,0.013772542,0.0,0.669855,0.39062262,0.04547285,-1.6880932,0.02297636,0.0,0.111234486,0.37743008,0.67004794,0.3716114,0.25513294,inf,inf,inf,inf,0,1,0,1,1,0,1,0,2,0,0,1
17277550,0,0.0,0.0,0.0,0.0,0.62761664,8.477813e-05,6.837378e-05,0.0,0.31952706,0.17566112,0.0024669678,0.0126948645,0.017076872,0.013772542,0.0,0.96477395,-0.11958502,-0.3022652,-1.686839,0.02297636,0.0,0.10915756,0.40791938,0.66656893,0.39478058,0.25254264,inf,inf,inf,inf,0,1,0,1,1,0,1,0,2,0,0,1
17381694,0,0.0,0.0,0.0,0.0,0.633268,8.477813e-05,6.837378e-05,0.0,0.31373876,0.17356467,0.0053929123,0.019123783,0.017076872,0.013772542,0.0,0.9725441,0.0516286,-0.42465237,-1.6862005,0.02297636,0.0,0.11334431,0.37839028,0.6753064,0.38027075,0.25315046,inf,inf,inf,inf,0,1,0,1,1,0,1,0,2,0,0,1
17480987,0,0.0,0.0,0.0,0.0,0.63726664,8.477813e-05,6.837378e-05,0.0,0.30379555,0.17128466,0.010233604,0.025179436,0.017076872,0.013772542,0.0,-0.020912873,-0.30298796,-0.33741692,-1.6863148,0.02297636,0.0,0.10893661,0.40976518,0.6717184,0.404008,0.25055915,inf,inf,inf,inf,0,1,0,1,1,0,1,0,2,0,0,1
17580453,0,0.0,0.0,0.0,0.0,0.64547575,8.477813e-05,6.837378e-05,0.0,0.2972249,0.16818129,0.015907943,0.0357136,0.017076872,0.013772542,0.0,0.18092693,0.27004525,-0.066583335,-1.6859947,0.02297636,0.0,0.11457342,0.37947178,0.6681027,0.38828385,0.2479331,inf,inf,inf,inf,0,1,0,1,1,0,1,0,2,0,0,1
17679574,0,0.0,0.0,0.0,0.0,0.65158063,8.477813e-05,6.837378e-05,0.0,0.29029495,0.16152817,0.018077834,0.039761495,0.017076872,0.013772542,0.0,0.0237954,-0.5484714,0.2068679,-1.6852037,0.02297636,0.0,0.105289996,0.4116891,0.6646771,0.41209593,0.24544291,inf,inf,inf,inf,0,1,0,1,1,0,1,0,2,0,0,1
17778869,0,0.0,0.0,0.0,0.0,0.6574576,8.477813e-05,6.837378e-05,0.0,0.27915636,0.15934522,0.021697316,0.044486426,0.017076872,0.013772542,0.0,-0.22242057,-0.7140691,0.33046126,-1.6856008,0.02297636,0.0,0.10207862,0.38038272,0.66120046,0.39263353,0.24286523,inf,inf,inf,inf,0,1,0,1,1,0,1,0,2,0,0,1
17878160,0,0.0,0.0,0.0,0.0,0.6628185,8.477813e-05,6.837378e-05,0.0,0.27068013,0.15307909,0.025596032,0.048538983,0.017076872,0.013772542,0.0,0.8703265,-0.9635927,0.055218685,-1.6866844,0.02297636,0.0,0.100869834,0.41318035,0.65784806,0.41635585,0.24044126,inf,inf,inf,inf,0,1,0,1,1,0,1,0,2,0,0,1
17977454,0,0.0,0.0,0.0,0.0,0.66871953,8.477813e-05,6.837378e-05,0.0,0.25551233,0.1468596,0.028526118,0.05180501,0.017076872,0.013772542,0.0,-1.7549242,1.1660079,-1.6264237,-1.6878849,0.02297636,0.0,0.1063627,0.4487249,0.6544875,0.4411498,0.2380167,inf,inf,inf,inf,0,1,0,1,1,0,1,0,2,0,0,1
18076747,0,0.0,0.0,0.0,0.0,0.6778374,8.477813e-05,6.837378e-05,0.0,0.2622507,0.15648808,0.028563427,0.054978915,0.017076872,0.013772542,0.0,0.62583894,2.0327682,-2.0974796,-1.6896373,0.02297636,0.0,0.109043956,0.4874773,0.6628528,0.46835244,0.23864512,inf,inf,inf,inf,0,1,0,1,1,0,1,0,2,0,0,1
18176091,0,0.0,0.0,0.0,0.0,0.6846042,8.477813e-05,6.837378e-05,0.0,0.26362282,0.15483087,0.03708396,0.06355995,0.017076872,0.013772542,0.0,-0.7911157,0.36204657,0.11580606,-1.6911505,0.02297636,0.0,0.1022771,0.52893054,0.6594658,0.49727604,0.23624302,inf,inf,inf,inf,0,1,0,1,1,0,1,0,2,0,0,1
18275333,0,0.0,0.0,0.0,0.0,0.6886141,8.477813e-05,6.837378e-05,0.0,0.27771938,0.14772843,0.044828337,0.06814758,0.017076872,0.013772542,0.0,-1.7097883,-0.7775548,0.60699564,-1.6924902,0.02297636,0.0,0.1,0.5738846,0.6560742,0.528634,0.23391323,inf,inf,inf,inf,0,1,0,1,1,0,1,0,2,0,0,1
18374721,0,0.0,0.0,0.0,0.0,0.6942127,8.477813e-05,6.837378e-05,0.0,0.28559458,0.1608844,0.04495996,0.06701672,0.017076872,0.013772542,0.0,0.046734482,1.2043064,0.100921914,-1.693728,0.02297636,0.0,0.1,0.6215223,0.6527624,0.5610049,0.23161787,inf,inf,inf,inf,0,1,0,1,1,0,1,0,2,0,0,1
18478887,0,0.0,0.0,0.0,0.0,0.6981397,8.477813e-05,6.837378e-05,0.0,0.29931965,0.17559129,0.04420993,0.06304042,0.017076872,0.013772542,0.0,0.7581379,0.1780607,-0.24227983,-1.6946535,0.02297636,0.0,0.1,0.6731175,0.6494465,0.5950311,0.2293083,inf,inf,inf,inf,0,1,0,1,1,0,1,0,2,0,0,1
18578179,0,0.0,0.0,0.0,0.0,0.7000086,8.477813e-05,6.837378e-05,0.0,0.31545594,0.18842418,0.041277148,0.055221666,0.017076872,0.013772542,0.0,-0.53545403,2.5555232,-1.57178,-1.6957127,0.02297636,0.0,0.1,0.7272959,0.6462095,0.63150185,0.22711198,inf,inf,inf,inf,0,1,0,1,1,0,1,0,2,0,0,1
18677471,0,0.0,0.0,0.0,0.0,0.70360726,8.477813e-05,6.837378e-05,0.0,0.34257776,0.1823835,0.045205176,0.056172624,0.017076872,0.013772542,0.0,1.043594,-0.09922155,0.5967359,-1.6971052,0.02297636,0.0,0.1,0.78613263,0.6430339,0.6682487,0.22491594,inf,inf,inf,inf,0,1,0,1,1,0,1,0,2,0,0,1
18776764,0,0.0,0.0,0.0,0.0,0.70897293,8.477813e-05,6.837378e-05,0.0,0.35462588,0.19515185,0.055731032,0.06565368,0.017076872,0.013772542,0.0,-0.03885876,-2.9711523,2.0625572,-1.6980582,0.02297636,0.0,0.1,0.84875095,0.639931,0.7059921,0.22275718,inf,inf,inf,inf,0,1,0,1,1,0,1,0,2,0,0,1
18876053,0,0.0,0.0,0.0,0.0,0.71484846,8.477813e-05,6.837378e-05,0.0,0.37066177,0.19594027,0.05799951,0.06728788,0.017076872,0.013772542,0.0,1.0545139,-3.4630392,1.8348861,-1.6989508,0.02297636,0.0,0.1,0.9136141,0.6476906,0.7435177,0.2232847,inf,inf,inf,inf,0,1,0,1,1,0,1,0,2,0,0,1
18980316,0,0.0,0.0,0.0,0.0,0.7210323,8.477813e-05,6.837378e-05,0.0,0.3861727,0.21556401,0.058164217,0.06656188,0.017076872,0.013772542,0.0,-1.3521258,-0.6259379,0.9204115,-1.6996034,0.02297636,0.0,0.1,0.9840115,0.64449215,0.78321844,0.22117285,inf,inf,inf,inf,0,1,0,1,1,0,1,0,2,0,0,1
19079608,0,0.0,0.0,0.0,0.0,0.7283106,8.477813e-05,6.837378e-05,0.0,0.40851814,0.22185022,0.0611443,0.069881044,0.017076872,0.013772542,0.0,0.17370732,-0.27260414,1.0753136,-1.6989957,0.02297636,0.0,0.1,1.0559258,0.64128643,0.82219774,0.21902044,inf,inf,inf,inf,0,1,0,1,1,0,1,0,2,0,0,1
19179047,0,0.0,0.0,0.0,0.0,0.73236203,8.477813e-05,6.837378e-05,0.0,0.43107522,0.23526585,0.05682633,0.06232685,0.017076872,0.013772542,0.0,-1.515792,-0.16785748,0.7895885,-1.7016364,0.02297636,0.0,0.1,1.1345448,0.63816184,0.8653169,0.21703577,inf,inf,inf,inf,0,1,0,1,1,0,1,0,2,0,0,1
19278199,0,0.0,0.0,0.0,0.0,0.73541677,8.477813e-05,6.837378e-05,0.0,0.45000815,0.2293022,0.066164166,0.067636505,0.017076872,0.013772542,0.0,0.18274105,-1.8571826,0.9875826,-1.7044,0.02297636,0.0,0.1,1.2134874,0.6350883,0.90450877,0.21497278,inf,inf,inf,inf,0,1,0,1,1,0,1,0,2,0,0,1
19377488,0,0.0,0.0,0.0,0.0,0.73984975,8.477813e-05,6.837378e-05,0.0,0.45943245,0.23987116,0.07476242,0.07386248,0.017076872,0.013772542,0.0,-2.345173,-4.8749394,3.318935,-1.7065023,0.02297636,0.0,0.1,1.3005321,0.6320309,0.9475419,0.21301648,inf,inf,inf,inf,0,1,0,1,1,0,1,0,2,0,0,1
19481747,0,0.0,0.0,0.0,0.0,0.7418207,8.477813e-05,6.837378e-05,0.0,0.48482478,0.26970112,0.051836044,0.046209358,0.017076872,0.013772542,0.0,1.2347708,3.335153,-2.4684796,-1.706081,0.02297636,0.0,0.1,1.3859327,0.62902355,0.9866408,0.21101116,inf,inf,inf,inf,0,1,0,1,1,0,1,0,2,0,0,1
19581040,0,0.0,0.0,0.0,0.0,0.7432641,8.477813e-05,6.837378e-05,0.0,0.4966125,0.25612637,0.06540262,0.055392552,0.017076872,0.013772542,0.0,-0.06736749,-1.6728932,0.6984937,-1.7062565,0.02297636,0.0,0.1,1.4815565,0.636354,1.0311047,0.21157385,inf,inf,inf,inf,0,1,0,1,1,0,1,0,2,0,0,1
19680336,0,0.0,0.0,0.0,0.0,0.7444123,8.477813e-05,6.837378e-05,0.0,0.516017,0.2741466,0.07012585,0.0561257,0.017076872,0.013772542,0.0,0.7277371,-1.4824008,1.1982191,-1.7062141,0.02297636,0.0,0.1,1.572843,0.6332105,1.0722712,0.20968682,inf,inf,inf,inf,0,1,0,1,1,0,1,0,2,0,0,1
19779626,0,0.0,0.0,0.0,0.0,0.7468913,8.477813e-05,6.837378e-05,0.0,0.5373426,0.28646716,0.06898627,0.05252737,0.017076872,0.013772542,0.0,-0.292449,-1.4413126,1.3888669,-1.7016084,0.02297636,0.0,0.1,1.6772672,0.6300966,1.1172376,0.20776431,inf,inf,inf,inf,0,1,0,1,1,0,1,0,2,0,0,1
19878922,0,0.0,0.0,0.0,0.0,0.751339,8.477813e-05,6.837378e-05,0.0,0.54351956,0.29342788,0.06456974,0.047944922,0.017076872,0.013772542,0.0,-0.18100747,-0.49466544,1.0218837,-1.6984079,0.02297636,0.0,0.1,1.7733167,0.6269821,1.1553588,0.20585632,inf,inf,inf,inf,0,1,0,1,1,0,1,0,2,0,0,1
19978266,0,0.0,0.0,0.0,0.0,0.7530107,8.477813e-05,6.837378e-05,0.0,0.53998214,0.30143008,0.061593674,0.042657245,0.017076872,0.013772542,0.0,0.78049916,-0.6658045,1.3970466,-1.6950686,0.02297636,0.0,0.1,1.8863785,0.6239525,1.20179,0.20402293,inf,inf,inf,inf,0,1,0,1,1,0,1,0,2,0,0,1
20072556,0,0.0,0.0,0.0,0.0,0.7515159,8.477813e-05,6.837378e-05,0.0,0.5427678,0.31134653,0.05579313,0.032202568,0.017076872,0.013772542,0.0,-2.204224,-0.21311471,1.5000503,-1.6915002,0.02297636,0.0,0.1,1.973918,0.62927336,1.2334783,0.20424856,inf,inf,inf,inf,0,1,0,1,1,0,1,0,2,0,0,1
20181764,0,0.0,0.0,0.0,0.0,0.7465293,8.477813e-05,6.837378e-05,0.0,0.55725986,0.32892045,0.05416593,0.022712404,0.017076872,0.013772542,0.0,0.0036172438,-0.2813519,0.58809674,-1.6828418,0.02297636,0.0,0.1,2.1074624,0.6279516,1.285915,0.20278484,inf,inf,inf,inf,0,1,0,1,1,0,1,0,2,0,0,1
20281058,0,0.0,0.0,0.0,0.0,0.7400479,8.477813e-05,6.837378e-05,0.0,0.58751017,0.32751915,0.058503993,0.0189694,0.017076872,0.013772542,0.0,1.3473164,0.03473969,-0.7161878,-1.6716257,0.02297636,0.0,0.1,2.2083077,0.62496865,1.3205994,0.20100877,inf,inf,inf,inf,0,1,0,1,1,0,1,0,2,0,0,1
20380351,0,0.0,0.0,0.0,0.0,0.7371744,8.477813e-05,6.837378e-05,0.0,0.6105857,0.33890072,0.059080392,0.015004311,0.017076872,0.013772542,0.0,0.36803246,-0.554862,-0.9697829,-1.6569644,0.02297636,0.0,0.101242125,2.3384516,0.6220145,1.3684374,0.19919714,inf,inf,inf,inf,0,1,0,1,1,0,1,0,2,0,0,1
20479644,0,0.0,0.0,0.0,0.0,0.7344851,8.477813e-05,6.837378e-05,0.0,0.6149167,0.34704906,0.06722714,0.019844722,0.017076872,0.013772542,0.0,-0.46361336,-1.0498855,0.32109088,-1.642148,0.02297636,0.0,0.10393143,2.4381208,0.6191067,1.3971751,0.19735198,inf,inf,inf,inf,0,1,0,1,1,0,1,0,2,0,0,1
20578938,0,0.0,0.0,0.0,0.0,0.72955096,8.477813e-05,6.837378e-05,0.0,0.6545794,0.3553303,0.06492494,0.011662864,0.017076872,0.013772542,0.0,0.33845899,-0.732315,0.8543009,-1.6271292,0.02297636,0.0,0.10886556,2.5761805,0.61621326,1.4458665,0.19559519,inf,inf,inf,inf,0,1,0,1,1,0,1,0,2,0,0,1
20678231,0,0.0,0.0,0.0,0.0,0.7232026,8.477813e-05,6.837378e-05,0.0,0.690221,0.35670692,0.073595524,0.013085362,0.017076872,0.013772542,0.0,1.7370081,1.1533803,-0.3039194,-1.6117291,0.02297636,0.0,0.11521393,2.6718411,0.6133726,1.4697013,0.19385652,inf,inf,inf,inf,0,1,0,1,1,0,1,0,2,0,0,1
20777536,0,0.0,0.0,0.0,0.0,0.7156851,8.477813e-05,6.837378e-05,0.0,0.69785184,0.35507566,0.06038359,-0.007347327,0.017076872,0.013772542,0.0,1.1281028,1.3511634,-0.46295097,-1.5996373,0.02297636,0.0,0.12273139,2.817358,0.61054677,1.5179602,0.19209014,inf,inf,inf,inf,0,1,0,1,1,0,1,0,2,0,0,1
20876818,0,0.0,0.0,0.0,0.0,0.7102081,8.477813e-05,6.837378e-05,0.0,0.6943916,0.34463263,0.066503875,-0.0054077907,0.017076872,0.013772542,0.0,0.37765804,-2.861349,2.6706104,-1.5959262,0.02297636,0.0,0.1282084,2.9058797,0.6171407,1.5360168,0.1924435,inf,inf,inf,inf,0,1,0,1,1,0,1,0,2,0,0,1
20976111,0,0.0,0.0,0.0,0.0,0.7064761,8.477813e-05,6.837378e-05,0.0,0.6840999,0.35696575,0.05179453,-0.021170981,0.017076872,0.013772542,0.0,-1.7768087,2.0753329,-1.9867394,-1.591947,0.02297636,0.0,0.13194042,3.058241,0.61424935,1.5850855,0.19077651,inf,inf,inf,inf,0,1,0,1,1,0,1,0,2,0,0,1
21075588,0,0.0,0.0,0.0,0.0,0.7014668,8.477813e-05,6.837378e-05,0.0,0.6544074,0.34288847,0.036735866,-0.03714199,0.017076872,0.013772542,0.0,-4.073398,-2.0863912,1.5404993,-1.5930039,0.02297636,0.0,0.13694972,3.1363666,0.61141145,1.59605,0.18914628,inf,inf,inf,inf,0,1,0,1,1,0,1,0,2,0,0,1
21179662,0,0.0,0.0,0.0,0.0,0.69722795,8.477813e-05,6.837378e-05,0.0,0.65609705,0.34175834,0.05106293,-0.022831243,0.017076872,0.013772542,0.0,0.5803053,-0.7578273,0.40592226,-1.5997845,0.02297636,0.0,0.14118856,3.2948797,0.6085509,1.6449653,0.18756403,inf,inf,inf,inf,0,1,0,1,1,0,1,0,2,0,0,1
21278960,0,0.0,0.0,0.0,0.0,0.68897444,8.477813e-05,6.837378e-05,0.0,0.64941764,0.33895296,0.056051116,-0.023134977,0.017076872,0.013772542,0.0,1.2978665,1.3438619,-1.089715,-1.6060973,0.02297636,0.0,0.14944208,3.3603868,0.6056537,1.6503803,0.18603098,inf,inf,inf,inf,0,1,0,1,1,0,1,0,2,0,0,1
21378249,0,0.0,0.0,0.0,0.0,0.67926073,8.477813e-05,6.837378e-05,0.0,0.6129023,0.33712202,0.041757,-0.042705033,0.017076872,0.013772542,0.0,-0.6393419,0.44318745,0.48515898,-1.6126243,0.02297636,0.0,0.15915579,3.5244508,0.6120299,1.6979474,0.18640132,inf,inf,inf,inf,0,1,0,1,1,0,1,0,2,0,0,1
21477542,0,0.0,0.0,0.0,0.0,0.6692566,8.477813e-05,6.837378e-05,0.0,0.6273909,0.34142536,0.048318703,-0.040829316,0.017076872,0.013772542,0.0,0.6949274,-0.05652391,-0.25678688,-1.619679,0.02297636,0.0,0.16915989,3.5735571,0.609134,1.6922942,0.18478943,inf,inf,inf,inf,0,1,0,1,1,0,1,0,2,0,0,1
21576862,0,0.0,0.0,0.0,0.0,0.66028875,8.477813e-05,6.837378e-05,0.0,0.627222,0.33907038,0.03759786,-0.05512916,0.017076872,0.013772542,0.0,1.4812905,-0.47443798,-0.053707298,-1.6276118,0.02297636,0.0,0.17812777,3.741957,0.60631675,1.740894,0.18326709,inf,inf,inf,inf,0,1,0,1,1,0,1,0,2,0,0,1
21676129,0,0.0,0.0,0.0,0.0,0.6517837,8.477813e-05,6.837378e-05,0.0,0.6148981,0.33642974,0.034898825,-0.059396677,0.017076872,0.013772542,0.0,-0.7135978,0.23191863,0.7381499,-1.6348982,0.02297636,0.0,0.18663281,3.9152696,0.6035631,1.7889712,0.18175495,inf,inf,inf,inf,0,1,0,1,1,0,1,0,2,0,0,1
21775422,0,0.0,0.0,0.0,0.0,0.6467373,8.477813e-05,6.837378e-05,0.0,0.5988344,0.32559803,0.04772496,-0.046008587,0.017076872,0.013772542,0.0,-0.33972102,-0.4696154,-0.75365686,-1.6431603,0.02297636,0.0,0.19167924,3.9438937,0.60080814,1.7730445,0.18025167,inf,inf,inf,inf,0,1,0,1,1,0,1,0,2,0,0,1
21874821,0,0.0,0.0,0.0,0.0,0.6413379,8.477813e-05,6.837378e-05,0.0,0.57171327,0.32611632,0.016232079,-0.07686975,0.017076872,0.013772542,0.0,-1.9038405,0.22539718,-0.50409,-1.6499442,0.02297636,0.0,0.19707865,4.120553,0.598081,1.820828,0.17876236,inf,inf,inf,inf,0,1,0,1,1,0,1,0,2,0,0,1
21979005,0,0.0,0.0,0.0,0.0,0.63163364,8.477813e-05,6.837378e-05,0.0,0.55109966,0.29856098,0.0033542837,-0.090674065,0.017076872,0.013772542,0.0,0.5905181,0.19091696,-1.8439294,-1.6558526,0.02297636,0.0,0.20678288,4.127467,0.59535676,1.7952495,0.17727274,inf,inf,inf,inf,0,1,0,1,1,0,1,0,2,0,0,1
22078268,0,0.0,0.0,0.0,0.0,0.62285346,8.477813e-05,6.837378e-05,0.0,0.54833883,0.28904942,0.003792679,-0.08863874,0.017076872,0.013772542,0.0,-1.5371051,0.32931554,0.57722175,-1.6650683,0.02297636,0.0,0.21556306,4.3064322,0.5927476,1.845437,0.17597723,inf,inf,inf,inf,0,1,0,1,1,0,1,0,2,0,0,1
22172596,0,0.0,0.0,0.0,0.0,0.61594665,8.477813e-05,6.837378e-05,0.0,0.56709796,0.24490388,0.009608763,-0.08089642,0.017076872,0.013772542,0.0,2.328762,1.2201362,-0.3169206,-1.6758173,0.02297636,0.0,0.22246987,4.2732673,0.59732646,1.8068266,0.17612559,inf,inf,inf,inf,0,1,0,1,1,0,1,0,2,0,0,1
22281819,0,0.0,0.0,0.0,0.0,0.60752094,8.477813e-05,6.837378e-05,0.0,0.5571546,0.19964062,0.013739219,-0.07570818,0.017076872,0.013772542,0.0,0.2959919,-1.9951344,1.5336746,-1.6882975,0.02297636,0.0,0.23089558,4.4715796,0.5961877,1.857336,0.17495279,inf,inf,inf,inf,0,1,0,1,1,0,1,0,2,0,0,1
22381136,0,0.0,0.0,0.0,0.0,0.5975348,8.477813e-05,6.837378e-05,0.0,0.5827219,0.13863845,-0.004626688,-0.09374241,0.017076872,0.013772542,0.0,1.4754367,-1.0478909,0.3053716,-1.6976912,0.02297636,0.0,0.24088174,4.4351535,0.5935746,1.8169856,0.1735918,inf,inf,inf,inf,0,1,0,1,1,0,1,0,2,0,0,1
22475441,0,0.0,0.0,0.0,0.0,0.58879083,8.477813e-05,6.837378e-05,0.0,0.57765394,0.09209944,-0.026500558,-0.11351771,0.017076872,0.013772542,0.0,-2.5254314,0.2517462,1.7658371,-1.7040268,0.02297636,0.0,0.24962568,4.597793,0.58963645,1.8573232,0.17211466,inf,inf,inf,inf,0,1,0,1,1,0,1,0,2,0,0,1
22574734,0,0.0,0.0,0.0,0.0,0.5810457,8.477813e-05,6.837378e-05,0.0,0.5938529,0.038829826,-0.029095035,-0.11135438,0.017076872,0.013772542,0.0,3.130797,-0.35522413,0.2534494,-1.7072647,0.02297636,0.0,0.25737083,4.541525,0.5871385,1.8097997,0.17084375,inf,inf,inf,inf,0,1,0,1,1,0,1,0,2,0,0,1
22674146,0,0.0,0.0,0.0,0.0,0.5733219,8.477813e-05,6.837378e-05,0.0,0.5754364,-0.0072044483,-0.048976235,-0.12552913,0.017076872,0.013772542,0.0,-1.8090223,-1.8281788,1.8918809,-1.7120011,0.02297636,0.0,0.26509464,4.7217836,0.58470076,1.8548357,0.1696787,inf,inf,inf,inf,0,1,0,1,1,0,1,0,2,0,0,1
22783250,0,0.0,0.0,0.0,0.0,0.5644917,8.477813e-05,6.837378e-05,0.0,0.53640157,-0.026329493,-0.07116099,-0.14111322,0.017076872,0.013772542,0.0,-2.2148638,1.5274407,-1.3285711,-1.713823,0.02297636,0.0,0.27392483,4.662702,0.5836639,1.8048048,0.1686358,inf,inf,inf,inf,0,1,0,1,1,0,1,0,2,0,0,1
22872636,0,0.0,0.0,0.0,0.0,0.55546737,8.477813e-05,6.837378e-05,0.0,0.5245753,-0.06298466,-0.08220903,-0.14799337,0.017076872,0.013772542,0.0,1.0280805,-0.44721666,-0.24073292,-1.7123966,0.02297636,0.0,0.28294915,4.8243055,0.5880143,1.8430912,0.16882701,inf,inf,inf,inf,0,1,0,1,1,0,1,0,2,0,0,1
22981837,0,0.0,0.0,0.0,0.0,0.5440619,8.477813e-05,6.837378e-05,0.0,0.4790952,-0.077919915,-0.08986201,-0.1501886,0.017076872,0.013772542,0.0,-1.765535,-0.8187354,0.6010535,-1.7103652,0.02297636,0.0,0.29435462,4.7460394,0.58689535,1.7874038,0.16780376,inf,inf,inf,inf,0,1,0,1,1,0,1,0,2,0,0,0
23081130,0,0.0,0.0,0.0,0.0,0.534592,8.477813e-05,6.837378e-05,0.0,0.46673217,-0.093601644,-0.089983135,-0.14479043,0.017076872,0.013772542,0.0,0.43853638,1.2300578,-2.2517383,-1.7075915,0.02297636,0.0,0.30382454,4.9240007,0.5843928,1.8286778,0.16660708,inf,inf,inf,inf,0,1,0,1,1,0,1,0,2,0,0,0
23180424,0,0.0,0.0,0.0,0.0,0.5251617,8.477813e-05,6.837378e-05,0.0,0.40711603,-0.09238624,-0.10142817,-0.15130876,0.017076872,0.013772542,0.0,0.51546603,0.26182204,-1.0525129,-1.70456,0.02297636,0.0,0.31325483,4.810606,0.5819051,1.7644354,0.16538754,inf,inf,inf,inf,0,1,0,1,1,0,1,0,2,0,0,0
23279717,0,0.0,0.0,0.0,0.0,0.51298034,8.477813e-05,6.837378e-05,0.0,0.3872447,-0.11921068,-0.11213656,-0.15835899,0.017076872,0.013772542,0.0,3.076802,-1.386226,1.2666962,-1.7032013,0.02297636,0.0,0.32543617,4.9861493,0.5794754,1.803186,0.164207,inf,inf,inf,inf,0,1,0,1,1,0,1,0,2,0,0,0
23379011,0,0.0,0.0,0.0,0.0,0.50077623,8.477813e-05,6.837378e-05,0.0,0.34844851,-0.10505807,-0.11017343,-0.15230522,0.017076872,0.013772542,0.0,-1.7223732,-1.0116428,1.7231321,-1.7051427,0.02297636,0.0,0.3376403,4.85811,0.57706034,1.7369694,0.16309486,inf,inf,inf,inf,0,1,0,1,1,0,1,0,2,0,0,0
23478356,0,0.0,0.0,0.0,0.0,0.48927283,8.477813e-05,6.837378e-05,0.0,0.29554653,-0.11476328,-0.10008057,-0.138646,0.017076872,0.013772542,0.0,-3.3959372,-0.3189528,0.24517712,-1.705802,0.02297636,0.0,0.34914368,5.03081,0.5826089,1.7747557,0.16344485,inf,inf,inf,inf,0,1,0,1,1,0,1,0,2,0,0,0
23572633,0,0.0,0.0,0.0,0.0,0.48025241,8.477813e-05,6.837378e-05,0.0,0.27358606,-0.11933346,-0.09913057,-0.13391782,0.017076872,0.013772542,0.0,-1.665986,-1.910658,2.2114305,-1.7056535,0.02297636,0.0,0.3581641,4.875818,0.5788182,1.7026203,0.16211618,inf,inf,inf,inf,0,1,0,1,1,0,1,0,2,0,0,0
23681856,0,0.0,0.0,0.0,0.0,0.4676804,8.477813e-05,6.837378e-05,0.0,0.23374791,-0.10991724,-0.13228765,-0.16373691,0.017076872,0.013772542,0.0,0.7296987,2.378685,-1.977731,-1.7036439,0.02297636,0.0,0.37073612,5.062047,0.577704,1.7418793,0.16115315,inf,inf,inf,inf,0,1,0,1,1,0,1,0,2,0,0,0
23781149,0,0.0,0.0,0.0,0.0,0.45322642,8.477813e-05,6.837378e-05,0.0,0.21444355,-0.13239163,-0.1481312,-0.17683455,0.017076872,0.013772542,0.0,-0.8875059,-1.8516972,1.8186443,-1.7029198,0.02297636,0.0,0.3851901,4.913626,0.57526094,1.6741245,0.1600585,inf,inf,inf,inf,0,1,0,1,1,0,1,0,2,0,0,0
23880480,0,0.0,0.0,0.0,0.0,0.43315887,8.477813e-05,6.837378e-05,0.0,0.18916483,-0.12743652,-0.19761615,-0.22656362,0.017076872,0.013772542,0.0,2.2946355,0.7325576,-1.69101,-1.6995941,0.02297636,0.0,0.40525764,5.0798125,0.57287854,1.7099563,0.15905616,inf,inf,inf,inf,0,1,0,1,1,0,1,0,2,0,0,0
23979736,0,0.0,0.0,0.0,0.0,0.40858367,8.477813e-05,6.837378e-05,0.0,0.17982659,-0.13362515,-0.22993979,-0.2593236,0.017076872,0.013772542,0.0,-1.0731472,-1.6542592,1.2295641,-1.6977658,0.02297636,0.0,0.42983285,4.92341,0.5705455,1.6408143,0.15795675,inf,inf,inf,inf,0,1,0,1,1,0,1,0,2,0,0,0
24079029,0,0.0,0.0,0.0,0.0,0.3812354,8.477813e-05,6.837378e-05,0.0,0.1900483,-0.13400012,-0.26230147,-0.2917796,0.017076872,0.013772542,0.0,-1.105149,1.7190145,-0.91544163,-1.6956798,0.02297636,0.0,0.45718113,5.086088,0.5759094,1.67554,0.15842839,inf,inf,inf,inf,0,1,0,1,1,0,1,0,2,0,0,0
24178322,0,0.0,0.0,0.0,0.0,0.3531367,8.477813e-05,6.837378e-05,0.0,0.24863428,-0.1391149,-0.29463568,-0.322276,0.017076872,0.013772542,0.0,2.1109822,-0.034002773,-0.88433087,-1.6940893,0.02297636,0.0,0.48527983,4.923658,0.5735536,1.606837,0.15738517,inf,inf,inf,inf,0,1,0,1,1,0,1,0,2,0,0,0
24277726,0,0.0,0.0,0.0,0.0,0.3219038,8.477813e-05,6.837378e-05,0.0,0.25255755,-0.12843955,-0.3522153,-0.3766746,0.017076872,0.013772542,0.0,-0.743737,1.0110449,-2.2969642,-1.6931962,0.02297636,0.0,0.51651275,5.0827246,0.57125235,1.6394027,0.15638706,inf,inf,inf,inf,0,1,0,1,1,0,1,0,2,0,0,0
24376909,0,0.0,0.0,0.0,0.0,0.2865706,8.477813e-05,6.837378e-05,0.0,0.28340766,-0.12602879,-0.38283995,-0.4039644,0.017076872,0.013772542,0.0,1.9987987,-1.5248154,1.0113907,-1.6910214,0.02297636,0.0,0.5518459,5.2451153,0.56896573,1.6731526,0.1554618,inf,inf,inf,inf,0,1,0,1,1,0,1,0,2,0,0,0
24476203,0,0.0,0.0,0.0,0.0,0.24989386,8.477813e-05,6.837378e-05,0.0,0.2778281,-0.112051636,-0.394737,-0.4115836,0.017076872,0.013772542,0.0,-4.653883,-0.6037172,1.4936808,-1.6907859,0.02297636,0.0,0.5885227,5.071331,0.56669825,1.6044463,0.15460555,inf,inf,inf,inf,0,1,0,1,1,0,1,0,2,0,0,0
24575646,0,0.0,0.0,0.0,0.0,0.20978236,8.477813e-05,6.837378e-05,0.0,0.2675187,-0.084858716,-0.41763374,-0.43283695,0.017076872,0.013772542,0.0,1.8057771,1.9945078,-1.5772246,-1.6900034,0.02297636,0.0,0.62863415,5.2299647,0.56448406,1.6365194,0.15365985,inf,inf,inf,inf,0,1,0,1,1,0,1,0,2,0,0,0
24674790,0,0.0,0.0,0.0,0.0,0.16710344,8.477813e-05,6.837378e-05,0.0,0.24552953,-0.078636,-0.428203,-0.44329235,0.017076872,0.013772542,0.0,1.4448193,0.5473071,-1.7416857,-1.6893135,0.02297636,0.0,0.67131305,5.0533495,0.5697146,1.5679073,0.15406388,inf,inf,inf,inf,0,1,0,1,1,0,1,0,2,0,0,0
24774120,0,0.0,0.0,0.0,0.0,0.12168836,8.477813e-05,6.837378e-05,0.0,0.21041642,-0.06227274,-0.44322518,-0.45939592,0.017076872,0.013772542,0.0,-0.5315371,0.18445006,0.6260811,-1.6878494,0.02297636,0.0,0.71672815,5.208087,0.56747675,1.5983517,0.1531694,inf,inf,inf,inf,0,1,0,1,1,0,1,0,2,0,0,0
24878342,0,0.0,0.0,0.0,0.0,0.06861928,8.477813e-05,6.837378e-05,0.0,0.17522568,-0.05054999,-0.4670352,-0.48738804,0.017076872,0.013772542,0.0,1.4997427,1.093795,-1.1306983,-1.6858177,0.02297636,0.0,0.7697972,5.029858,0.5652835,1.5317532,0.15221198,inf,inf,inf,inf,0,1,0,1,1,0,1,0,2,0,0,0
24977635,0,0.0,0.0,0.0,0.0,0.015676657,8.477813e-05,6.837378e-05,0.0,0.15397415,-0.03953418,-0.47833297,-0.5028311,0.017076872,0.013772542,0.0,-1.4137571,0.17052026,-0.7959983,-1.6839856,0.02297636,0.0,0.82273984,5.1807127,0.5631099,1.5613519,0.15134759,inf,inf,inf,inf,0,1,0,1,1,0,1,0,2,0,0,0
25076930,0,0.0,0.0,0.0,0.0,-0.0353247,8.477813e-05,6.837378e-05,0.0,0.12867753,-0.03595314,-0.48104554,-0.50651747,0.017076872,0.013772542,0.0,0.36321715,-1.2502637,0.8777779,-1.6820642,0.02297636,0.0,0.8737412,5.003822,0.5609808,1.498482,0.15048657,inf,inf,inf,inf,0,1,0,1,1,0,1,0,2,0,0,0
25176222,0,0.0,0.0,0.0,0.0,-0.086496465,8.477813e-05,6.837378e-05,0.0,0.11506582,-0.042000365,-0.48267144,-0.50878584,0.017076872,0.013772542,0.0,-0.9443906,-0.9101016,0.5723388,-1.6807325,0.02297636,0.0,0.924913,5.1510477,0.55890185,1.5269223,0.14963104,inf,inf,inf,inf,0,1,0,1,1,0,1,0,2,0,0,0
25275536,0,0.0,0.0,0.0,0.0,-0.1416532,8.477813e-05,6.837378e-05,0.0,0.096590005,-0.04778941,-0.4933869,-0.52306485,0.017076872,0.013772542,0.0,0.6709015,-1.2309715,1.093405,-1.6798186,0.02297636,0.0,0.9800697,4.974207,0.55686015,1.4646478,0.14875409,inf,inf,inf,inf,0,1,0,1,1,0,1,0,2,0,0,0
25374925,0,0.0,0.0,0.0,0.0,-0.20027924,8.477813e-05,6.837378e-05,0.0,0.07877574,-0.062414683,-0.5117502,-0.54688644,0.017076872,0.013772542,0.0,-1.0426413,0.8119437,-0.9641281,-1.6794118,0.02297636,0.0,1.0386958,5.11773,0.5548328,1.4921038,0.14790574,inf,inf,inf,inf,0,1,0,1,1,0,1,0,2,0,0,0
25479069,0,0.0,0.0,0.0,0.0,-0.2605592,8.477813e-05,6.837378e-05,0.0,0.053377792,-0.055586807,-0.522627,-0.5604138,0.017076872,0.013772542,0.0,-2.3845973,1.518829,0.022524955,-1.679173,0.02297636,0.0,1.0989757,4.943332,0.55987024,1.432569,0.14831139,inf,inf,inf,inf,0,1,0,1,1,0,1,0,2,0,0,0
25578360,0,0.0,0.0,0.0,0.0,-0.3184079,8.477813e-05,6.837378e-05,0.0,0.039762855,-0.07891772,-0.5252735,-0.56493396,0.017076872,0.013772542,0.0,-1.9873865,0.39523694,-1.0087334,-1.6799997,0.02297636,0.0,1.1568244,5.0833454,0.55781806,1.4606491,0.14752015,inf,inf,inf,inf,0,1,0,1,1,0,1,0,2,0,0,0
25672702,0,0.0,0.0,0.0,0.0,-0.37353054,8.477813e-05,6.837378e-05,0.0,0.03245946,-0.07856066,-0.51912653,-0.5608025,0.017076872,0.013772542,0.0,-2.2840981,-0.316349,1.1246811,-1.6806008,0.02297636,0.0,1.2119471,4.8966327,0.55463743,1.4007211,0.14660423,inf,inf,inf,inf,0,1,0,1,1,0,1,0,2,0,0,0
25781963,0,0.0,0.0,0.0,0.0,-0.43904963,8.477813e-05,6.837378e-05,0.0,-0.0017001423,-0.060567647,-0.5269698,-0.5719341,0.017076872,0.013772542,0.0,-2.3710122,1.4453906,-0.36989057,-1.6823053,0.02297636,0.0,1.2774662,5.0468545,0.5538683,1.4289613,0.14584735,inf,inf,inf,inf,0,1,0,1,1,0,1,0,2,0,0,0
25871276,0,0.0,0.0,0.0,0.0,-0.48975793,8.477813e-05,6.837378e-05,0.0,-0.0040058615,-0.061544567,-0.5098226,-0.5549406,0.017076872,0.013772542,0.0,1.1007379,1.2643824,-1.8998729,-1.6826084,0.02297636,0.0,1.3281745,4.863614,0.55074674,1.3730941,0.1449488,inf,inf,inf,inf,0,1,0,1,1,0,1,0,2,0,0,0
25980539,0,0.0,0.0,0.0,0.0,-0.54617083,8.477813e-05,6.837378e-05,0.0,-0.033883683,-0.051688254,-0.42923588,-0.47423854,0.017076872,0.013772542,0.0,-4.138185,1.1275337,-0.32160178,-1.6836194,0.02297636,0.0,1.3845873,5.010352,0.5500391,1.4006742,0.14437586,inf,inf,inf,inf,0,1,0,1,1,0,1,0,2,0,0,0
26079792,0,0.0,0.0,0.0,0.0,-0.59055483,8.477813e-05,6.837378e-05,0.0,-0.047895327,-0.039018437,-0.3389837,-0.38543093,0.017076872,0.013772542,0.0,-2.1395714,1.5571258,1.0981375,-1.6845434,0.02297636,0.0,1.4289713,4.8420796,0.54817694,1.3472452,0.14356175,inf,inf,inf,inf,0,1,0,1,1,0,1,0,2,0,0,0
26179189,0,0.0,0.0,0.0,0.0,-0.62611985,8.477813e-05,6.837378e-05,0.0,-0.061792172,-0.03456139,-0.2532701,-0.30069163,0.017076872,0.013772542,0.0,-0.052584913,-0.31661543,2.1385121,-1.6856287,0.02297636,0.0,1.4645364,4.972325,0.54632264,1.3699552,0.14279856,inf,inf,inf,inf,0,1,0,1,1,0,1,0,2,0,0,0
26283344,0,0.0,0.0,0.0,0.0,-0.6530593,8.477813e-05,6.837378e-05,0.0,-0.084678516,-0.02980265,-0.166058,-0.21332711,0.017076872,0.013772542,0.0,-1.654775,0.09736492,1.7520065,-1.6874427,0.02297636,0.0,1.4914758,4.807365,0.55120885,1.3182896,0.14321345,inf,inf,inf,inf,0,1,0,1,1,0,1,0,2,0,0,0
26372708,0,0.0,0.0,0.0,0.0,-0.67091614,8.477813e-05,6.837378e-05,0.0,-0.10498495,-0.012421842,-0.11790588,-0.16609658,0.017076872,0.013772542,0.0,-1.7802873,0.59074026,0.0007651783,-1.6890465,0.02297636,0.0,1.5093327,4.9215565,0.54819065,1.3382143,0.14227358,inf,inf,inf,inf,0,1,0,1,1,0,1,0,2,0,0,0
26481932,0,0.0,0.0,0.0,0.0,-0.6884695,8.477813e-05,6.837378e-05,0.0,-0.11709879,-0.0082356045,-0.08340788,-0.1326461,0.017076872,0.013772542,0.0,-3.5603666,0.15672949,0.693138,-1.689915,0.02297636,0.0,1.526886,4.7714396,0.5475241,1.2919956,0.14169805,inf,inf,inf,inf,0,1,0,1,1,0,1,0,2,0,0,0
26581224,0,0.0,0.0,0.0,0.0,-0.70232123,8.477813e-05,6.837378e-05,0.0,-0.13674001,0.011901646,-0.07907597,-0.12914582,0.017076872,0.013772542,0.0,-1.3960228,2.805185,-1.5234987,-1.6902622,0.02297636,0.0,1.5407377,4.8954487,0.5457047,1.3145386,0.14098094,inf,inf,inf,inf,0,1,0,1,1,0,1,0,2,0,0,0
26680517,0,0.0,0.0,0.0,0.0,-0.71616024,8.477813e-05,6.837378e-05,0.0,-0.13187607,0.020296905,-0.07096927,-0.12261243,0.017076872,0.013772542,0.0,2.951619,0.81775224,-1.3869133,-1.6900672,0.02297636,0.0,1.5545768,4.734919,0.54391557,1.2688558,0.14027084,inf,inf,inf,inf,0,1,0,1,1,0,1,0,2,0,0,0
26779812,0,0.0,0.0,0.0,0.0,-0.72836417,8.477813e-05,6.837378e-05,0.0,-0.10265876,0.0057245223,-0.058062136,-0.11025302,0.017076872,0.013772542,0.0,2.728252,1.4963286,-1.7469211,-1.6908286,0.02297636,0.0,1.5667807,4.856201,0.5421343,1.2919557,0.13964753,inf,inf,inf,inf,0,1,0,1,1,0,1,0,2,0,0,0
26879111,0,0.0,0.0,0.0,0.0,-0.73734194,8.477813e-05,6.837378e-05,0.0,-0.05867321,-0.010772006,-0.046353284,-0.097173914,0.017076872,0.013772542,0.0,3.0602577,-0.08809688,-0.036990125,-1.6932474,0.02297636,0.0,1.5757585,4.698361,0.5403581,1.2489734,0.13896695,inf,inf,inf,inf,0,1,0,1,1,0,1,0,2,0,0,0
26978459,0,0.0,0.0,0.0,0.0,-0.74497604,8.477813e-05,6.837378e-05,0.0,-0.040346026,-0.03054402,-0.03971008,-0.088546306,0.017076872,0.013772542,0.0,-2.8994122,-0.7267993,1.0767132,-1.6950105,0.02297636,0.0,1.5833926,4.8171253,0.54510593,1.2718462,0.13922568,inf,inf,inf,inf,0,1,0,1,1,0,1,0,2,0,0,0
27077691,0,0.0,0.0,0.0,0.0,-0.7527029,8.477813e-05,6.837378e-05,0.0,0.002963865,-0.034773197,-0.04501716,-0.092263244,0.017076872,0.013772542,0.0,3.058691,0.49768138,-0.9114695,-1.6901753,0.02297636,0.0,1.5911194,4.6620674,0.5433219,1.230889,0.13856375,inf,inf,inf,inf,0,1,0,1,1,0,1,0,2,0,0,0
27176986,0,0.0,0.0,0.0,0.0,-0.7604213,8.477813e-05,6.837378e-05,0.0,0.06395435,-0.06509693,-0.029439151,-0.07582771,0.017076872,0.013772542,0.0,1.4310858,-0.07233031,-0.054994993,-1.6876011,0.02297636,0.0,1.5988379,4.778445,0.5415237,1.2534776,0.13791436,inf,inf,inf,inf,0,1,0,1,1,0,1,0,2,0,0,0
27276281,0,0.0,0.0,0.0,0.0,-0.7670246,8.477813e-05,6.837378e-05,0.0,0.059683263,-0.05934413,-0.027408557,-0.073022686,0.017076872,0.013772542,0.0,0.6387671,1.6434075,-1.4501187,-1.6865431,0.02297636,0.0,1.6054411,4.8970547,0.5397104,1.2769402,0.13734967,inf,inf,inf,inf,0,1,0,1,1,0,1,0,2,0,0,0
27375572,0,0.0,0.0,0.0,0.0,-0.77484494,8.477813e-05,6.837378e-05,0.0,0.05265581,-0.055316206,-0.017653758,-0.064252324,0.017076872,0.013772542,0.0,0.9519429,-0.58329165,0.07697419,-1.6857744,0.02297636,0.0,1.6132615,4.740458,0.53789824,1.2372895,0.13647059,inf,inf,inf,inf,0,1,0,1,1,0,1,0,2,0,0,0
27474872,0,0.0,0.0,0.0,0.0,-0.7824762,8.477813e-05,6.837378e-05,0.0,0.03408017,-0.044120207,-0.010067592,-0.058054663,0.017076872,0.013772542,0.0,0.59593296,-0.27983648,0.1256772,-1.6847174,0.02297636,0.0,1.6208928,4.8568482,0.5425488,1.2603421,0.13695395,inf,inf,inf,inf,0,1,0,1,1,0,1,0,2,0,0,0
27579123,0,0.0,0.0,0.0,0.0,-0.78788173,8.477813e-05,6.837378e-05,0.0,0.0025472012,-0.032589,0.0002523167,-0.047658946,0.017076872,0.013772542,0.0,-2.6305382,1.4801852,-0.84851104,-1.6845942,0.02297636,0.0,1.6262982,4.703295,0.54074067,1.222916,0.1362962,inf,inf,inf,inf,0,1,0,1,1,0,1,0,2,0,0,0
27678417,0,0.0,0.0,0.0,0.0,-0.791056,8.477813e-05,6.837378e-05,0.0,-0.024355188,-0.05425205,0.019943012,-0.027158042,0.017076872,0.013772542,0.0,-2.0412304,-0.5570896,0.41942498,-1.6840702,0.02297636,0.0,1.6294725,4.817616,0.5389466,1.245809,0.13572235,inf,inf,inf,inf,0,1,0,1,1,0,1,0,2,0,0,0
27777786,0,0.0,0.0,0.0,0.0,-0.793304,8.477813e-05,6.837378e-05,0.0,-0.045199156,-0.06292034,0.035599742,-0.011681612,0.017076872,0.013772542,0.0,-0.4906363,0.7318849,-0.8458336,-1.6823565,0.02297636,0.0,1.6317205,4.6683035,0.5371893,1.2116064,0.13509834,inf,inf,inf,inf,0,1,0,1,1,0,1,0,2,0,0,0
27877004,0,0.0,0.0,0.0,0.0,-0.79395545,8.477813e-05,6.837378e-05,0.0,-0.07035321,-0.10453706,0.058114458,0.010415155,0.017076872,0.013772542,0.0,-0.62338233,-0.96147805,-0.21514562,-1.6814398,0.02297636,0.0,1.6323719,4.7808127,0.5354661,1.2341053,0.13443598,inf,inf,inf,inf,0,1,0,1,1,0,1,0,2,0,0,0
27976300,27966368,34.0362486,108.76083829999999,0.0,0.0,-0.7925495,8.477813e-05,6.837378e-05,0.0,-0.08827337,-0.14983594,0.072579384,0.024689754,0.017076872,0.013772542,0.0,0.7464581,0.08456876,-1.128485,-1.7142783,-0.034063138,422.72272,1.630966,4.634283,0.533748,1.2004889,0.13387598,inf,inf,inf,inf,0,1,0,1,1,0,1,0,3,1,1,0
28075746,27966368,34.0362486,108.76083829999999,-0.08475142,-0.07092955,-0.7872965,-0.12557681,0.040320598,0.0,-0.14004545,-0.4989244,0.09887875,0.05186224,-0.024717107,-0.33650494,0.022251908,1.5066023,0.29599938,-1.9157445,-1.7116734,-0.034063138,422.72272,1.625713,0.7920711,0.5258618,0.17926951,0.1313628,inf,inf,inf,inf,1,1,1,1,2,0,2,1,3,1,1,0
28174884,27966368,34.0362486,108.76083829999999,-0.10094558,-0.1323789,-0.77914894,-0.12557681,0.040320598,0.0,-0.15298826,-0.5330968,0.12045369,0.07434389,-0.024717107,-0.33650494,0.022251908,3.22942,0.2961431,-0.7781837,-1.705918,-0.034063138,422.72272,1.6175654,0.7925276,0.520421,0.19533871,0.13195817,inf,inf,inf,inf,1,1,1,1,2,0,2,1,3,1,1,0
28274178,27966368,34.0362486,108.76083829999999,-0.12408388,-0.19680174,-0.7720921,-0.12557681,0.040320598,0.0,-0.1705435,-0.5356569,0.12837179,0.080369815,-0.024717107,-0.33650494,0.022251908,1.9052175,0.56346655,-0.94381016,-1.7003541,-0.034063138,422.72272,1.6105087,0.6463844,0.50991404,0.1998653,0.12728037,inf,inf,inf,inf,1,1,1,1,2,0,2,1,3,1,1,0
28378436,27966368,34.0362486,108.76083829999999,-0.14984915,-0.2585509,-0.7657951,-0.12557681,0.040320598,0.0,-0.19469199,-0.5290061,0.13393624,0.083104596,-0.024717107,-0.33650494,0.022251908,0.41395903,-1.0846503,0.702733,-1.6949191,-0.034063138,422.72272,1.6042116,0.64772296,0.5004465,0.23224343,0.12806007,inf,inf,inf,inf,1,1,1,1,2,0,2,1,3,1,1,0
28477730,27966368,34.0362486,108.76083829999999,-0.18182139,-0.31472117,-0.7595583,-0.12557681,0.040320598,0.0,-0.21191585,-0.5115226,0.13737607,0.08473984,-0.024717107,-0.33650494,0.022251908,0.15083963,-0.24012794,-0.15110227,-1.6902891,-0.034063138,422.72272,1.5979748,0.5601565,0.4915511,0.23237857,0.12395008,inf,inf,inf,inf,1,1,1,1,2,0,2,1,3,1,1,0
28577027,27966368,34.0362486,108.76083829999999,-0.21420284,-0.36915842,-0.7519936,-0.12557681,0.040320598,0.0,-0.19976985,-0.49957007,0.14620455,0.092681736,-0.024717107,-0.33650494,0.022251908,2.4303262,0.4208927,-1.3578556,-1.6876321,-0.034063138,422.72272,1.5904101,0.5628178,0.48368412,0.27030498,0.12487226,inf,inf,inf,inf,1,1,1,1,2,0,2,1,3,1,1,0
28671353,27966368,34.0362486,108.76083829999999,-0.24670963,-0.41828957,-0.743923,-0.12557681,0.040320598,0.0,-0.18656187,-0.48347107,0.14944431,0.09526401,-0.024717107,-0.33650494,0.022251908,-0.97683865,0.1253295,0.06126842,-1.689222,-0.034063138,422.72272,1.5823395,0.5024,0.47584966,0.2531448,0.12116671,inf,inf,inf,inf,1,1,1,1,2,0,2,1,3,1,1,0
28780620,27966368,34.0362486,108.76083829999999,-0.27908432,-0.47237867,-0.73370886,-0.12557681,0.040320598,0.0,-0.14482483,-0.4579937,0.14986613,0.09562865,-0.024717107,-0.33650494,0.022251908,1.0044802,1.0522498,-0.63028157,-1.6898334,-0.034063138,422.72272,1.5721254,0.5069893,0.47375786,0.2907254,0.1223618,inf,inf,inf,inf,1,1,1,1,2,0,2,1,3,1,1,0
28880017,27966368,34.0362486,108.76083829999999,-0.3079526,-0.5216306,-0.7219037,-0.12557681,0.040320598,0.0,-0.11843695,-0.4386589,0.14078864,0.08933816,-0.024717107,-0.33650494,0.022251908,-1.563296,1.7967564,-1.5766282,-1.6904806,-0.034063138,422.72272,1.5603201,0.4617093,0.46692237,0.2654868,0.11917648,inf,inf,inf,inf,1,1,1,1,2,0,2,1,3,1,1,0
28979162,27966368,34.0362486,108.76083829999999,-0.33173087,-0.5691133,-0.71347404,-0.12557681,0.040320598,0.0,-0.09530559,-0.42948496,0.14756066,0.0954002,-0.024717107,-0.33650494,0.022251908,0.54971,0.37543184,0.5595252,-1.6901561,-0.034063138,422.72272,1.5518906,0.46744168,0.4613004,0.2960605,0.12040927,inf,inf,inf,inf,1,1,1,1,2,0,2,1,3,1,1,0
29078456,27966368,34.0362486,108.76083829999999,-0.35263768,-0.6191479,-0.7070657,-0.12557681,0.040320598,0.0,-0.06951732,-0.42443743,0.14720963,0.091807276,-0.024717107,-0.33650494,0.022251908,-0.6441113,-0.32407823,0.6792683,-1.6901771,-0.034063138,422.72272,1.5454822,0.43097606,0.45530277,0.2640737,0.117570914,inf,inf,inf,inf,1,1,1,1,2,0,2,1,3,1,1,0
29172831,27966368,34.0362486,108.76083829999999,-0.36876416,-0.6660439,-0.70086974,-0.12557681,0.040320598,0.0,-0.08133819,-0.41226402,0.1395381,0.0816157,-0.024717107,-0.33650494,0.022251908,0.55607986,-0.19861606,0.1538413,-1.6917622,-0.034063138,422.72272,1.5392863,0.4370863,0.45032793,0.28750047,0.11877414,inf,inf,inf,inf,1,1,1,1,2,0,2,1,3,1,1,0
29282008,27966368,34.0362486,108.76083829999999,-0.39666408,-0.7225486,-0.6959295,-0.12557681,0.040320598,0.0,-0.09371264,-0.41174805,0.13028024,0.06868346,-0.024717107,-0.33650494,0.022251908,3.7507303,-0.24587215,-0.022593366,-1.692204,-0.034063138,422.72272,1.5343461,0.40712872,0.44530267,0.25760347,0.1163384,inf,inf,inf,inf,1,1,1,1,2,0,2,1,3,1,1,0
29371374,27966368,34.0362486,108.76083829999999,-0.42184353,-0.7689847,-0.6930251,-0.12557681,0.040320598,0.0,-0.11248738,-0.4054544,0.12146047,0.05708386,-0.024717107,-0.33650494,0.022251908,3.4728644,1.5415354,-0.5449644,-1.69191,-0.034063138,422.72272,1.5314417,0.4140403,0.44110444,0.27867863,0.11768667,inf,inf,inf,inf,1,1,1,1,2,0,2,1,3,1,1,0
29480593,27966368,34.0362486,108.76083829999999,-0.4549901,-0.8217792,-0.6916127,-0.12557681,0.040320598,0.0,-0.115221746,-0.397646,0.10883479,0.040507216,-0.024717107,-0.33650494,0.022251908,-3.3630316,0.8963814,0.27743354,-1.6930603,-0.034063138,422.72272,1.5300293,0.38820648,0.4366552,0.24973409,0.11548758,inf,inf,inf,inf,1,1,1,1,2,0,2,1,3,1,1,0
29579937,27966368,34.0362486,108.76083829999999,-0.48166746,-0.8667183,-0.69355583,-0.12557681,0.040320598,0.0,-0.09049854,-0.39356807,0.08670794,0.013930823,-0.024717107,-0.33650494,0.022251908,-1.6625465,-0.22578993,0.29424202,-1.6921481,-0.034063138,422.72272,1.5319724,0.396661,0.43686104,0.26913446,0.117161095,inf,inf,inf,inf,1,1,1,1,2,0,2,1,3,1,1,0
29679289,27966368,34.0362486,108.76083829999999,-0.51021266,-0.90581137,-0.7001451,-0.12557681,0.040320598,0.0,-0.047283005,-0.38127688,0.06256837,-0.01660506,-0.024717107,-0.33650494,0.022251908,1.5966022,-0.46736136,0.05891685,-1.6916618,-0.034063138,422.72272,1.5385616,0.37285808,0.43241763,0.24068531,0.11497137,inf,inf,inf,inf,1,1,1,1,2,0,2,1,3,1,1,0
29778475,27966368,34.0362486,108.76083829999999,-0.53278655,-0.94092524,-0.70921797,-0.12557681,0.040320598,0.0,-0.010216396,-0.36945826,0.033600017,-0.05104721,-0.024717107,-0.33650494,0.022251908,4.2508817,0.4089986,-0.44281453,-1.6904074,-0.034063138,422.72272,1.5476345,0.38180527,0.42980558,0.25779673,0.11667721,inf,inf,inf,inf,1,1,1,1,2,0,2,1,3,1,1,0
29877796,27966368,34.0362486,108.76083829999999,-0.55501807,-0.9751953,-0.71748585,-0.12557681,0.040320598,0.0,0.014232688,-0.348636,0.015398325,-0.071131356,-0.024717107,-0.33650494,0.022251908,2.667023,0.9548337,-1.8467247,-1.6910233,-0.034063138,422.72272,1.5559024,0.36028317,0.42573428,0.23206173,0.11464895,inf,inf,inf,inf,1,1,1,1,2,0,2,1,3,1,1,0
29982028,27966368,34.0362486,108.76083829999999,-0.5689918,-1.0097947,-0.7255526,-0.12557681,0.040320598,0.0,0.050945688,-0.34542248,0.005601718,-0.08077337,-0.024717107,-0.33650494,0.022251908,-1.3212239,-0.59181434,0.55376834,-1.6950282,-0.034063138,422.72272,1.5639691,0.3696048,0.4236615,0.2473006,0.11649657,inf,inf,inf,inf,1,1,1,1,2,0,2,1,3,1,1,0
30071390,27966368,34.0362486,108.76083829999999,-0.5847365,-1.0446702,-0.7340825,-0.12557681,0.040320598,0.0,0.030234087,-0.35112488,-0.005613808,-0.0922249,-0.024717107,-0.33650494,0.022251908,-1.8423325,-1.2136829,1.091564,-1.7004642,-0.034063138,422.72272,1.572499,0.34879082,0.41946074,0.22214603,0.11430078,inf,inf,inf,inf,1,1,1,1,2,0,2,1,3,1,1,0
30180613,27966368,34.0362486,108.76083829999999,-0.6062791,-1.0931624,-0.7446845,-0.12557681,0.040320598,0.0,0.02265852,-0.38524732,-0.0151895555,-0.100921035,-0.024717107,-0.33650494,0.022251908,1.8403659,0.2140349,0.35922965,-1.7064883,-0.034063138,422.72272,1.583101,0.3592193,0.41829312,0.237426,0.11636693,inf,inf,inf,inf,1,1,1,1,2,0,2,1,3,1,1,0
30279907,27966368,34.0362486,108.76083829999999,-0.62142575,-1.1431276,-0.7519259,-0.12557681,0.040320598,0.0,0.01171753,-0.417949,-0.023151064,-0.10513811,-0.024717107,-0.33650494,0.022251908,1.0059816,0.051335607,-0.03168949,-1.714338,-0.034063138,422.72272,1.5903424,0.34087777,0.41478366,0.21612379,0.1144544,inf,inf,inf,inf,1,1,1,1,2,0,2,1,3,1,1,0
30379200,27966368,34.0362486,108.76083829999999,-0.63300234,-1.1965501,-0.7588197,-0.12557681,0.040320598,0.0,-0.0015558298,-0.46638927,-0.01891223,-0.09686209,-0.024717107,-0.33650494,0.022251908,-2.1956587,0.01064331,1.5068691,-1.7211447,-0.034063138,422.72272,1.5972362,0.3506544,0.41653895,0.22820804,0.11649414,inf,inf,inf,inf,1,1,1,1,2,0,2,1,3,1,1,0
30478570,27966368,34.0362486,108.76083829999999,-0.6429813,-1.2545915,-0.760762,-0.12557681,0.040320598,0.0,-0.020174205,-0.53365934,-0.011215036,-0.08084798,-0.024717107,-0.33650494,0.022251908,-2.3370507,-1.4944221,1.5985775,-1.7272714,-0.034063138,422.72272,1.5991786,0.33345127,0.41316712,0.20899679,0.11465541,inf,inf,inf,inf,1,1,1,1,2,0,2,1,3,1,1,0
30572822,27966368,34.0362486,108.76083829999999,-0.64930934,-1.312865,-0.7615057,-0.12557681,0.040320598,0.0,-0.01630222,-0.57324004,-0.0060071964,-0.06886667,-0.024717107,-0.33650494,0.022251908,-1.4130925,-1.0148722,1.3364222,-1.7316358,-0.034063138,422.72272,1.5999222,0.34231868,0.4118525,0.21887293,0.11639273,inf,inf,inf,inf,1,1,1,1,2,0,2,1,3,1,1,0
30682040,27966368,34.0362486,108.76083829999999,-0.659508,-1.3799412,-0.76336306,-0.12557681,0.040320598,0.0,-0.027457131,-0.58419055,-0.0030486817,-0.059913076,-0.024717107,-0.33650494,0.022251908,-3.2311153,-0.28201425,0.99359727,-1.7344207,-0.034063138,422.72272,1.6017796,0.32719308,0.40915695,0.20296603,0.1148227,inf,inf,inf,inf,1,1,1,1,2,0,2,1,3,1,1,0
30771594,27966368,34.0362486,108.76083829999999,-0.6677079,-1.4352989,-0.7635371,-0.12557681,0.040320598,0.0,-0.03951029,-0.6052482,-0.0044806604,-0.056193825,-0.024717107,-0.33650494,0.022251908,0.12074848,0.924746,-0.71914303,-1.7344688,-0.034063138,422.72272,1.6019536,0.33616933,0.40816948,0.21212117,0.116593964,inf,inf,inf,inf,1,1,1,1,2,0,2,1,3,1,1,0
30880633,27966368,34.0362486,108.76083829999999,-0.67911255,-1.5008715,-0.76742136,-0.12557681,0.040320598,0.0,-0.042926718,-0.59918916,-0.0039855554,-0.054113295,-0.024717107,-0.33650494,0.022251908,-0.15322378,-1.0259978,-0.17765051,-1.7338797,-0.034063138,422.72272,1.6058378,0.32177186,0.40563563,0.19701184,0.115008466,inf,inf,inf,inf,1,1,1,1,2,0,2,1,3,1,1,0
30979926,27966368,34.0362486,108.76083829999999,-0.6883088,-1.5578842,-0.77184767,-0.12557681,0.040320598,0.0,-0.038584832,-0.57791454,-0.007685353,-0.056953803,-0.024717107,-0.33650494,0.022251908,2.3662748,0.81422496,-1.1395742,-1.7321272,-0.034063138,422.72272,1.6102642,0.33187637,0.40547484,0.20653062,0.11702247,inf,inf,inf,inf,1,1,1,1,2,0,2,1,3,1,1,0
31079219,27966368,34.0362486,108.76083829999999,-0.6999548,-1.6171577,-0.7755273,-0.12557681,0.040320598,0.0,-0.038418613,-0.5684545,-0.006242737,-0.05368321,-0.024717107,-0.33650494,0.022251908,3.936362,0.195814,-0.7105549,-1.7312949,-0.034063138,422.72272,1.6139438,0.31707865,0.4052292,0.19173823,0.11537635,inf,inf,inf,inf,1,1,1,1,2,0,2,1,3,1,1,0
31178514,27966368,34.0362486,108.76083829999999,-0.7108545,-1.6758187,-0.78016365,-0.12557681,0.040320598,0.0,-0.052545812,-0.5575561,-0.008062415,-0.054817904,-0.024717107,-0.33650494,0.022251908,-0.57508993,1.4756825,-0.9253304,-1.7303338,-0.034063138,422.72272,1.6185801,0.327221,0.40534216,0.20088838,0.11744576,inf,inf,inf,inf,1,1,1,1,2,0,2,1,3,1,1,0
31277836,27966368,34.0362486,108.76083829999999,-0.720529,-1.7318817,-0.7853522,-0.12557681,0.040320598,0.0,-0.06792161,-0.57150584,-0.008005656,-0.054657005,-0.024717107,-0.33650494,0.022251908,0.3052912,-0.007955857,0.2785223,-1.7298774,-0.034063138,422.72272,1.6237687,0.3129865,0.4024288,0.18725051,0.115626365,inf,inf,inf,inf,1,1,1,1,2,0,2,1,3,1,1,0
31377100,27966368,34.0362486,108.76083829999999,-0.7287353,-1.7888097,-0.791691,-0.12557681,0.040320598,0.0,-0.07508036,-0.5919694,-0.008883092,-0.05660709,-0.024717107,-0.33650494,0.022251908,-0.5885385,-1.4171218,0.8134278,-1.7302885,-0.034063138,422.72272,1.6301075,0.32314482,0.4027731,0.19593526,0.11768457,inf,inf,inf,inf,1,1,1,1,2,0,2,1,3,1,1,0
31476393,27966368,34.0362486,108.76083829999999,-0.7421693,-1.8525009,-0.8013856,-0.12557681,0.040320598,0.0,-0.08275648,-0.6197435,-0.009447833,-0.06114098,-0.024717107,-0.33650494,0.022251908,-1.3728185,0.028644377,1.0504688,-1.7313315,-0.034063138,422.72272,1.6398021,0.30943254,0.39993,0.18326266,0.11581824,inf,inf,inf,inf,1,1,1,1,2,0,2,1,3,1,1,0
31575928,27966368,34.0362486,108.76083829999999,-0.7566155,-1.9212903,-0.81046903,-0.12557681,0.040320598,0.0,-0.107721254,-0.6784007,-0.010291008,-0.06461655,-0.024717107,-0.33650494,0.022251908,-2.6189408,-1.0139649,0.1873808,-1.733363,-0.034063138,422.72272,1.6488855,0.31959108,0.40314665,0.19164158,0.11808094,inf,inf,inf,inf,1,1,1,1,2,0,2,1,3,1,1,0
31679952,27966368,34.0362486,108.76083829999999,-0.77462393,-2.0018446,-0.8182388,-0.12557681,0.040320598,0.0,-0.124069214,-0.7441274,-0.0051207277,-0.06094527,-0.024717107,-0.33650494,0.022251908,-0.7208775,-0.85381687,0.76337403,-1.7348453,-0.034063138,422.72272,1.6566553,0.30631894,0.40031627,0.17984433,0.11623508,inf,inf,inf,inf,1,1,1,1,2,0,2,1,3,1,1,0
31779239,27966368,34.0362486,108.76083829999999,-0.7926076,-2.0842147,-0.8251939,-0.12557681,0.040320598,0.0,-0.1452632,-0.8003785,0.0025284733,-0.054084845,-0.024717107,-0.33650494,0.022251908,-1.0461345,-0.5453104,1.152795,-1.736601,-0.034063138,422.72272,1.6636105,0.3164688,0.40108895,0.18857808,0.11833662,inf,inf,inf,inf,1,1,1,1,2,0,2,1,3,1,1,0
31878533,27966368,34.0362486,108.76083829999999,-0.8123173,-2.1711042,-0.8300221,-0.12557681,0.040320598,0.0,-0.15803638,-0.85246956,0.010950125,-0.044789903,-0.024717107,-0.33650494,0.022251908,0.05668568,-1.5841756,1.7137866,-1.7380155,-0.034063138,422.72272,1.6684387,0.30353752,0.39831495,0.17731841,0.11641527,inf,inf,inf,inf,1,1,1,1,2,0,2,1,3,1,1,0
31977826,27966368,34.0362486,108.76083829999999,-0.8318052,-2.25933,-0.8347275,-0.12557681,0.040320598,0.0,-0.17505243,-0.864098,0.0049851206,-0.0501132,-0.024717107,-0.33650494,0.022251908,0.9099487,1.238719,-1.3343834,-1.737289,-0.034063138,422.72272,1.6731441,0.3136701,0.3992718,0.18538173,0.118491545,inf,inf,inf,inf,1,1,1,1,2,0,2,1,3,1,1,0
32077119,27966368,34.0362486,108.76083829999999,-0.85324484,-2.3499165,-0.8419661,-0.12557681,0.040320598,0.0,-0.18790534,-0.8917504,0.0100812595,-0.047396395,-0.024717107,-0.33650494,0.022251908,0.7999084,0.6436782,-1.2773455,-1.735731,-0.034063138,422.72272,1.6803826,0.30107325,0.39652637,0.17471798,0.116555296,inf,inf,inf,inf,1,1,1,1,2,0,2,1,3,1,1,0
32171449,27966368,34.0362486,108.76083829999999,-0.8740665,-2.435958,-0.84897697,-0.12557681,0.040320598,0.0,-0.21974576,-0.884166,0.015683293,-0.04437711,-0.024717107,-0.33650494,0.022251908,-2.1896777,-0.18690854,1.9449476,-1.7350854,-0.034063138,422.72272,1.6873934,0.31012285,0.3995924,0.18195783,0.11860553,inf,inf,inf,inf,1,1,1,1,2,0,2,1,3,1,1,0
32280671,27966368,34.0362486,108.76083829999999,-0.899197,-2.5341492,-0.8579283,-0.12557681,0.040320598,0.0,-0.23153262,-0.87443197,0.010320021,-0.052627906,-0.024717107,-0.33650494,0.022251908,-1.85476,0.82949907,0.35507745,-1.7319185,-0.034063138,422.72272,1.6963449,0.2988721,0.39747116,0.1727132,0.11687077,inf,inf,inf,inf,1,1,1,1,2,0,2,1,3,1,1,0
32380115,27966368,34.0362486,108.76083829999999,-0.92229694,-2.6216388,-0.8654987,-0.12557681,0.040320598,0.0,-0.24456945,-0.8524414,0.0048506632,-0.059449654,-0.024717107,-0.33650494,0.022251908,-0.8847473,0.6761187,0.20126516,-1.728893,-0.034063138,422.72272,1.7039152,0.30895483,0.39874873,0.18130335,0.118966304,inf,inf,inf,inf,1,1,1,1,2,0,2,1,3,1,1,0
32474295,27966368,34.0362486,108.76083829999999,-0.941271,-2.703275,-0.87158275,-0.12557681,0.040320598,0.0,-0.25130758,-0.8397136,-0.00584599,-0.06994359,-0.024717107,-0.33650494,0.022251908,1.3018118,0.4989882,-0.19835141,-1.7256622,-0.034063138,422.72272,1.7099993,0.2959338,0.39537916,0.17089295,0.11673484,inf,inf,inf,inf,1,1,1,1,2,0,2,1,3,1,1,0
32583516,27966368,34.0362486,108.76083829999999,-0.96181506,-2.7961721,-0.8785941,-0.12557681,0.040320598,0.0,-0.25472528,-0.8216467,-0.023767801,-0.08610871,-0.024717107,-0.33650494,0.022251908,-0.47650725,1.5626682,-1.872943,-1.7221657,-0.034063138,422.72272,1.7170106,0.30694672,0.39742756,0.18045445,0.11908013,inf,inf,inf,inf,1,1,1,1,2,0,2,1,3,1,1,0
32672895,27966368,34.0362486,108.76083829999999,-0.9792526,-2.8760407,-0.8834485,-0.12557681,0.040320598,0.0,-0.22426713,-0.81736016,-0.041189197,-0.099656805,-0.024717107,-0.33650494,0.022251908,3.4877145,-0.21922874,-1.6190481,-1.7194574,-0.034063138,422.72272,1.7218649,0.2942825,0.39408055,0.17059752,0.116850734,inf,inf,inf,inf,1,1,1,1,2,0,2,1,3,1,1,0
32782103,27966368,34.0362486,108.76083829999999,-0.99860036,-2.972411,-0.8908986,-0.12557681,0.040320598,0.0,-0.21166702,-0.8084246,-0.060930163,-0.11496332,-0.024717107,-0.33650494,0.022251908,0.81903076,0.4918709,-0.95298237,-1.7142828,-0.034063138,422.72272,1.729315,0.3053045,0.39626017,0.17970964,0.11912603,inf,inf,inf,inf,1,1,1,1,2,0,2,1,3,1,1,0
32871502,27966368,34.0362486,108.76083829999999,-1.0145615,-3.0495887,-0.8998833,-0.12557681,0.040320598,0.0,-0.19272622,-0.80500686,-0.07739306,-0.12934437,-0.024717107,-0.33650494,0.022251908,0.5566992,0.3849439,-1.0703716,-1.7073987,-0.034063138,422.72272,1.7382998,0.29266456,0.3928945,0.16998902,0.11682998,inf,inf,inf,inf,1,1,1,1,2,0,2,1,3,1,1,0
32980693,27966368,34.0362486,108.76083829999999,-1.0336609,-3.1413102,-0.91428196,-0.12557681,0.040320598,0.0,-0.20529407,-0.7916632,-0.09875352,-0.14998999,-0.024717107,-0.33650494,0.022251908,-2.6316895,0.23054433,-1.019247,-1.6994141,-0.034063138,422.72272,1.7526984,0.30366868,0.39516863,0.17924058,0.119094044,inf,inf,inf,inf,1,1,1,1,2,0,2,1,3,1,1,0
33079994,27966368,34.0362486,108.76083829999999,-1.058726,-3.2255943,-0.9288332,-0.12557681,0.040320598,0.0,-0.17969503,-0.7844211,-0.103408284,-0.15408537,-0.024717107,-0.33650494,0.022251908,-1.9949703,-0.27307227,0.45035842,-1.6927791,-0.034063138,422.72272,1.7672497,0.29216757,0.39496118,0.17051439,0.1173031,inf,inf,inf,inf,1,1,1,1,2,0,2,1,3,1,1,0
33179396,27966368,34.0362486,108.76083829999999,-1.0853481,-3.3092103,-0.94506,-0.12557681,0.040320598,0.0,-0.18535674,-0.7763968,-0.111728355,-0.16297016,-0.024717107,-0.33650494,0.022251908,0.4018966,-0.21013898,0.6085753,-1.6878948,-0.034063138,422.72272,1.7834766,0.30220768,0.39669964,0.17898217,0.11927625,inf,inf,inf,inf,1,1,1,1,2,0,2,1,3,1,1,0
33278573,27966368,34.0362486,108.76083829999999,-1.1059557,-3.3886921,-0.96048576,-0.12557681,0.040320598,0.0,-0.18317696,-0.7576943,-0.12982109,-0.17973009,-0.024717107,-0.33650494,0.022251908,3.601986,0.3409247,-0.594784,-1.6851431,-0.034063138,422.72272,1.7989023,0.29085922,0.39392623,0.17025532,0.11712557,inf,inf,inf,inf,1,1,1,1,2,0,2,1,3,1,1,0
33377918,27966368,34.0362486,108.76083829999999,-1.1244876,-3.4653344,-0.97856843,-0.12557681,0.040320598,0.0,-0.19766347,-0.73784435,-0.14615019,-0.19594586,-0.024717107,-0.33650494,0.022251908,-1.125399,1.6148497,-1.1254544,-1.686021,-0.034063138,422.72272,1.8169849,0.30089,0.3957145,0.17875962,0.11907557,inf,inf,inf,inf,1,1,1,1,2,0,2,1,3,1,1,0
33477159,27966368,34.0362486,108.76083829999999,-1.1451589,-3.5399778,-1.0003585,-0.12557681,0.040320598,0.0,-0.20824365,-0.723836,-0.15297906,-0.20513426,-0.024717107,-0.33650494,0.022251908,-2.9216115,0.51200676,-0.2863784,-1.6888448,-0.034063138,422.72272,1.8387749,0.28967285,0.39294666,0.17028548,0.11698187,inf,inf,inf,inf,1,1,1,1,2,0,2,1,3,1,1,0
33576452,27966368,34.0362486,108.76083829999999,-1.1666471,-3.6121013,-1.0219272,-0.12557681,0.040320598,0.0,-0.21052174,-0.71014625,-0.16300651,-0.21586771,-0.024717107,-0.33650494,0.022251908,-2.2933664,-0.44808844,0.9007226,-1.6934023,-0.034063138,422.72272,1.8603437,0.29970682,0.3973405,0.17879696,0.11913187,inf,inf,inf,inf,1,1,1,1,2,0,2,1,3,1,1,0
33675746,27966368,34.0362486,108.76083829999999,-1.1882854,-3.685779,-1.0430951,-0.12557681,0.040320598,0.0,-0.2163098,-0.6878404,-0.1770543,-0.22858828,-0.024717107,-0.33650494,0.022251908,-2.510775,-0.23295233,2.0246925,-1.6988091,-0.034063138,422.72272,1.8815117,0.28855646,0.39452365,0.1703009,0.11700335,inf,inf,inf,inf,1,1,1,1,2,0,2,1,3,1,1,0
33775041,27966368,34.0362486,108.76083829999999,-1.2095777,-3.757931,-1.0648649,-0.12557681,0.040320598,0.0,-0.20836799,-0.67826146,-0.18922715,-0.2387552,-0.024717107,-0.33650494,0.022251908,-2.326596,-0.9915776,1.6379883,-1.7068973,-0.034063138,422.72272,1.9032815,0.29859537,0.39645904,0.17891525,0.1188964,inf,inf,inf,inf,1,1,1,1,2,0,2,1,3,1,1,0
33874335,27966368,34.0362486,108.76083829999999,-1.2329465,-3.8331509,-1.0914394,-0.12557681,0.040320598,0.0,-0.22054799,-0.6549655,-0.20677353,-0.25798488,-0.024717107,-0.33650494,0.022251908,-1.5070155,1.8833845,0.18578172,-1.7164551,-0.034063138,422.72272,1.9298558,0.2874676,0.39364398,0.17050326,0.11675612,inf,inf,inf,inf,1,1,1,1,2,0,2,1,3,1,1,0
33983658,27966368,34.0362486,108.76083829999999,-1.2595723,-3.9136322,-1.1231979,-0.12557681,0.040320598,0.0,-0.22878923,-0.6408082,-0.21925265,-0.27323997,-0.024717107,-0.33650494,0.022251908,-2.4182944,0.9298217,-0.46674305,-1.7274209,-0.034063138,422.72272,1.9616144,0.29857424,0.39634338,0.18000136,0.11883147,inf,inf,inf,inf,1,1,1,1,2,0,2,1,3,1,1,0
34077885,27966368,34.0362486,108.76083829999999,-1.2824284,-3.9745004,-1.1533788,-0.12557681,0.040320598,0.0,-0.24305749,-0.62554115,-0.2237787,-0.2819034,-0.024717107,-0.33650494,0.022251908,-3.4563882,1.0061764,1.4194984,-1.7355984,-0.034063138,422.72272,1.9917953,0.2864382,0.3928184,0.1705451,0.116463706,inf,inf,inf,inf,1,1,1,1,2,0,2,1,3,1,1,0
34177181,27966368,34.0362486,108.76083829999999,-1.3071096,-4.0346622,-1.1868255,-0.12557681,0.040320598,0.0,-0.23373096,-0.59882367,-0.24274011,-0.3049701,-0.024717107,-0.33650494,0.022251908,3.4211595,1.7745787,-2.1507325,-1.743261,-0.034063138,422.72272,2.025242,0.29650295,0.39482817,0.18015693,0.11833033,inf,inf,inf,inf,1,1,1,1,2,0,2,1,3,1,1,0
34266759,27966368,34.0362486,108.76083829999999,-1.3335288,-4.0933313,-1.2164932,-0.12557681,0.040320598,0.0,-0.2665136,-0.5959066,-0.23748285,-0.30159652,-0.024717107,-0.33650494,0.022251908,-2.9306982,-2.4226735,2.141865,-1.7498024,-0.034063138,422.72272,2.0549097,0.2845311,0.39381242,0.17035401,0.11619685,inf,inf,inf,inf,1,1,1,1,2,0,2,1,3,1,1,0
34380731,27966368,34.0362486,108.76083829999999,-1.3698043,-4.168389,-1.2527647,-0.12557681,0.040320598,0.0,-0.2727239,-0.5891112,-0.24586038,-0.31091598,-0.024717107,-0.33650494,0.022251908,3.3890178,-0.8911566,0.102797985,-1.7521362,-0.034063138,422.72272,2.0911813,0.2955879,0.3966056,0.18007351,0.11827125,inf,inf,inf,inf,1,1,1,1,2,0,2,1,3,1,1,0
34480027,27966368,34.0362486,108.76083829999999,-1.3984425,-4.2299995,-1.2923338,-0.12557681,0.040320598,0.0,-0.29719618,-0.5696909,-0.20983568,-0.2841271,-0.024717107,-0.33650494,0.022251908,-0.95306563,-1.3629653,2.790565,-1.7550232,-0.034063138,422.72272,2.1307504,0.28457078,0.39376715,0.17183249,0.1161091,inf,inf,inf,inf,1,1,1,1,2,0,2,1,3,1,1,0
34579318,27966368,34.0362486,108.76083829999999,-1.4272945,-4.287996,-1.3276147,-0.12557681,0.040320598,0.0,-0.31549174,-0.5569542,-0.14612512,-0.22905317,-0.024717107,-0.33650494,0.022251908,-1.1011227,-0.2923736,2.0850096,-1.7573104,-0.034063138,422.72272,2.1660311,0.29470626,0.39588946,0.18045886,0.11786978,inf,inf,inf,inf,1,1,1,1,2,0,2,1,3,1,1,0
34678611,27966368,34.0362486,108.76083829999999,-1.457162,-4.3544745,-1.3498712,-0.12557681,0.040320598,0.0,-0.32705203,-0.5475969,-0.06111026,-0.14633045,-0.024717107,-0.33650494,0.022251908,-1.5882328,-0.5585326,2.18339,-1.7586201,-0.034063138,422.72272,2.1882877,0.28372395,0.39305228,0.17061876,0.11565938,inf,inf,inf,inf,1,1,1,1,2,0,2,1,3,1,1,0
34777942,27966368,34.0362486,108.76083829999999,-1.4889234,-4.4208155,-1.3613979,-0.12557681,0.040320598,0.0,-0.34078062,-0.5422359,0.01971442,-0.06512657,-0.024717107,-0.33650494,0.022251908,0.31454507,-1.5392628,2.518667,-1.7589165,-0.034063138,422.72272,2.1998143,0.29384148,0.39515665,0.17775904,0.117305666,inf,inf,inf,inf,1,1,1,1,2,0,2,1,3,1,1,0
34877200,27966368,34.0362486,108.76083829999999,-1.5236423,-4.4874797,-1.3680627,-0.12557681,0.040320598,0.0,-0.33749834,-0.5304799,0.068550654,-0.017692924,-0.024717107,-0.33650494,0.022251908,-0.2511663,-1.2074875,2.642659,-1.7579038,-0.034063138,422.72272,2.2064793,0.2829049,0.39479956,0.16798832,0.11534117,inf,inf,inf,inf,1,1,1,1,2,0,2,1,3,1,1,0
34976492,27966368,34.0362486,108.76083829999999,-1.557756,-4.5515075,-1.3715032,-0.12557681,0.040320598,0.0,-0.3282475,-0.52673614,0.08266634,-0.004634421,-0.024717107,-0.33650494,0.022251908,-0.7153592,-1.3603243,1.8347282,-1.7574939,-0.034063138,422.72272,2.2099197,0.292978,0.39694446,0.17520513,0.11697851,inf,inf,inf,inf,1,1,1,1,2,0,2,1,3,1,1,0
35075963,27966368,34.0362486,108.76083829999999,-1.5809194,-4.61265,-1.3715926,-0.12557681,0.040320598,0.0,-0.2731671,-0.5162056,0.08572283,-0.00026205712,-0.024717107,-0.33650494,0.022251908,2.4104257,-0.008617192,-0.22983374,-1.7546923,-0.034063138,422.72272,2.210009,0.28205073,0.39405704,0.1665967,0.114784434,inf,inf,inf,inf,1,1,1,1,2,0,2,1,3,1,1,0
35180043,27966368,34.0362486,108.76083829999999,-1.5969929,-4.6728296,-1.3699709,-0.12557681,0.040320598,0.0,-0.21304348,-0.50841516,0.07942562,-0.0042702258,-0.024717107,-0.33650494,0.022251908,-1.0020031,-0.5577828,1.6782376,-1.7508681,-0.034063138,422.72272,2.2083874,0.29211783,0.39619935,0.17464496,0.11643603,inf,inf,inf,inf,1,1,1,1,2,0,2,1,3,1,1,0
35279337,27966368,34.0362486,108.76083829999999,-1.602566,-4.733384,-1.367504,-0.12557681,0.040320598,0.0,-0.11649573,-0.509413,0.057113145,-0.022031255,-0.024717107,-0.33650494,0.022251908,2.233349,0.21105793,-0.55453545,-1.7450765,-0.034063138,422.72272,2.2059205,0.2812108,0.39332503,0.16751139,0.1143486,inf,inf,inf,inf,1,1,1,1,2,0,2,1,3,1,1,0
35383672,27966368,34.0362486,108.76083829999999,-1.6005954,-4.795223,-1.3667488,-0.12557681,0.040320598,0.0,-0.023625704,-0.507065,0.035327584,-0.03957911,-0.024717107,-0.33650494,0.022251908,0.25122234,0.15873246,0.4300338,-1.736749,-0.034063138,422.72272,2.2051654,0.29132807,0.39547485,0.17590012,0.11598313,inf,inf,inf,inf,1,1,1,1,2,0,2,1,3,1,1,0
35472980,27966368,34.0362486,108.76083829999999,-1.587373,-4.845939,-1.3680298,-0.12557681,0.040320598,0.0,0.07639093,-0.50984514,0.020512464,-0.050940666,-0.024717107,-0.33650494,0.022251908,-0.030178761,-0.8777591,0.61598235,-1.7308328,-0.034063138,422.72272,2.2064464,0.27940032,0.3919132,0.16714698,0.1136731,inf,inf,inf,inf,1,1,1,1,2,0,2,1,3,1,1,0
35582262,27966368,34.0362486,108.76083829999999,-1.563146,-4.9047346,-1.372957,-0.12557681,0.040320598,0.0,0.16067648,-0.5032182,-0.005427971,-0.07381007,-0.024717107,-0.33650494,0.022251908,0.6069975,-0.74185646,1.1527792,-1.7227474,-0.034063138,422.72272,2.2113736,0.29053956,0.39476493,0.17758204,0.11555412,inf,inf,inf,inf,1,1,1,1,2,0,2,1,3,1,1,0
35671547,27966368,34.0362486,108.76083829999999,-1.5366652,-4.954368,-1.3791676,-0.12557681,0.040320598,0.0,0.22514227,-0.4998559,-0.03314193,-0.09963885,-0.024717107,-0.33650494,0.022251908,0.39473355,0.041351017,-0.3916126,-1.7180905,-0.034063138,422.72272,2.2175841,0.2787317,0.39370814,0.16857821,0.11354813,inf,inf,inf,inf,1,1,1,1,2,0,2,1,3,1,1,0
35780771,27966368,34.0362486,108.76083829999999,-1.5006299,-5.01335,-1.3884807,-0.12557681,0.040320598,0.0,0.25127834,-0.48808143,-0.064827,-0.12841557,-0.024717107,-0.33650494,0.022251908,-1.5715575,0.17191857,-0.25162908,-1.711151,-0.034063138,422.72272,2.2268972,0.2899529,0.39660653,0.1781276,0.11538567,inf,inf,inf,inf,1,1,1,1,2,0,2,1,3,1,1,0
35880221,27966368,34.0362486,108.76083829999999,-1.467676,-5.0673714,-1.3998468,-0.12557681,0.040320598,0.0,0.29194683,-0.48085108,-0.081048466,-0.14236951,-0.024717107,-0.33650494,0.022251908,-2.0924168,0.11888584,-0.056008495,-1.7060362,-0.034063138,422.72272,2.2382634,0.27898312,0.39372662,0.16960497,0.11330689,inf,inf,inf,inf,1,1,1,1,2,0,2,1,3,1,1,0
35979357,27966368,34.0362486,108.76083829999999,-1.433824,-5.1196895,-1.4110357,-0.12557681,0.040320598,0.0,0.3115139,-0.47724906,-0.083459996,-0.14131063,-0.024717107,-0.33650494,0.022251908,0.95031047,-1.2537273,1.137943,-1.7035125,-0.034063138,422.72272,2.249452,0.28926995,0.39590302,0.17816892,0.11491784,inf,inf,inf,inf,1,1,1,1,2,0,2,1,3,1,1,0
36078655,27966368,34.0362486,108.76083829999999,-1.406026,-5.169538,-1.4258835,-0.12557681,0.040320598,0.0,0.2824423,-0.45453447,-0.0509374,-0.110968344,-0.024717107,-0.33650494,0.022251908,-1.8247174,0.23583491,0.16899031,-1.7026585,-0.034063138,422.72272,2.2643,0.27815673,0.3930176,0.16926678,0.112823606,inf,inf,inf,inf,1,1,1,1,2,0,2,1,3,1,1,0
36177944,27966368,34.0362486,108.76083829999999,-1.3830884,-5.216564,-1.4383,-0.12557681,0.040320598,0.0,0.24916658,-0.44190538,0.009269649,-0.054939404,-0.024717107,-0.33650494,0.022251908,-0.27245465,0.72109693,1.2784883,-1.7038022,-0.034063138,422.72272,2.2767165,0.2884491,0.39517796,0.17723514,0.11435983,inf,inf,inf,inf,1,1,1,1,2,0,2,1,3,1,1,0
36277262,27966368,34.0362486,108.76083829999999,-1.3586408,-5.263478,-1.4410598,-0.12557681,0.040320598,0.0,0.24647675,-0.42908663,0.06364846,-0.0004346243,-0.024717107,-0.33650494,0.022251908,3.2794645,-0.38564497,0.053792488,-1.7048227,-0.034063138,422.72272,2.2794764,0.27748397,0.3923202,0.16757694,0.11226053,inf,inf,inf,inf,1,1,1,1,2,0,2,1,3,1,1,0
36376531,27966368,34.0362486,108.76083829999999,-1.3363941,-5.308173,-1.4369891,-0.12557681,0.040320598,0.0,0.2137556,-0.40964705,0.10689798,0.044824228,-0.024717107,-0.33650494,0.022251908,-1.0387429,0.354551,-0.2609423,-1.7066014,-0.034063138,422.72272,2.2754056,0.28774855,0.39698952,0.17465544,0.114024796,inf,inf,inf,inf,1,1,1,1,2,0,2,1,3,1,1,0
36475826,27966368,34.0362486,108.76083829999999,-1.3169506,-5.3530326,-1.4269319,-0.12557681,0.040320598,0.0,0.17991011,-0.39954436,0.14780511,0.089602314,-0.024717107,-0.33650494,0.022251908,-1.2943608,-0.19053422,1.0846504,-1.7090722,-0.034063138,422.72272,2.2653484,0.2767692,0.39408758,0.16540597,0.1119396,inf,inf,inf,inf,1,1,1,1,2,0,2,1,3,1,1,0
36575118,27966368,34.0362486,108.76083829999999,-1.2997067,-5.39598,-1.4120624,-0.12557681,0.040320598,0.0,0.17812824,-0.3841361,0.18956001,0.13529406,-0.024717107,-0.33650494,0.022251908,-1.6913238,-0.100853845,0.6401202,-1.7116985,-0.034063138,422.72272,2.250479,0.28699896,0.39622712,0.1725591,0.11339411,inf,inf,inf,inf,1,1,1,1,2,0,2,1,3,1,1,0
36674575,27966368,34.0362486,108.76083829999999,-1.2824721,-5.4367313,-1.3950664,-0.12557681,0.040320598,0.0,0.15854365,-0.37279454,0.21228851,0.16029406,-0.024717107,-0.33650494,0.022251908,-1.0230396,1.2189956,-0.068984695,-1.7150573,-0.034063138,422.72272,2.2334828,0.2760354,0.3933375,0.16380519,0.11134225,inf,inf,inf,inf,1,1,1,1,2,0,2,1,3,1,1,0
36778670,27966368,34.0362486,108.76083829999999,-1.2661492,-5.477121,-1.3760394,-0.12557681,0.040320598,0.0,0.13322115,-0.36810938,0.21475987,0.16463181,-0.024717107,-0.33650494,0.022251908,-2.134749,0.091563605,-0.13782388,-1.7197589,-0.034063138,422.72272,2.2144558,0.2862414,0.39544353,0.17101629,0.11277943,inf,inf,inf,inf,1,1,1,1,2,0,2,1,3,1,1,0
36877964,27966368,34.0362486,108.76083829999999,-1.2499073,-5.514269,-1.3557199,-0.12557681,0.040320598,0.0,0.11996848,-0.36265862,0.21306096,0.16692106,-0.024717107,-0.33650494,0.022251908,0.34451324,0.7338197,-1.0137316,-1.7217766,-0.034063138,422.72272,2.1941364,0.2751791,0.39257643,0.16331069,0.11081002,inf,inf,inf,inf,1,1,1,1,2,0,2,1,3,1,1,0
36977257,27966368,34.0362486,108.76083829999999,-1.2341896,-5.5513988,-1.3347032,-0.12557681,0.040320598,0.0,0.107498914,-0.3778665,0.21391413,0.17194667,-0.024717107,-0.33650494,0.022251908,-2.702591,0.7071038,-1.1189394,-1.7243928,-0.034063138,422.72272,2.1731198,0.28538954,0.39721137,0.1708132,0.11254275,inf,inf,inf,inf,1,1,1,1,2,0,2,1,3,1,1,0
37076551,27966368,34.0362486,108.76083829999999,-1.2168082,-5.591969,-1.3159237,-0.12557681,0.040320598,0.0,0.088894844,-0.39292166,0.2054341,0.16503032,-0.024717107,-0.33650494,0.022251908,0.21269439,1.2956982,-2.3012314,-1.7255906,-0.034063138,422.72272,2.1543403,0.27445722,0.39432874,0.16278724,0.110572375,inf,inf,inf,inf,1,1,1,1,2,0,2,1,3,1,1,0
37175848,27966368,34.0362486,108.76083829999999,-1.2017567,-5.633353,-1.2983932,-0.12557681,0.040320598,0.0,0.0631346,-0.40594882,0.19795915,0.15849133,-0.024717107,-0.33650494,0.022251908,1.0828269,0.047556143,-0.08756063,-1.7264992,-0.034063138,422.72272,2.1368098,0.28467795,0.39644632,0.17029247,0.11200268,inf,inf,inf,inf,1,1,1,1,2,0,2,1,3,1,1,0
37280104,27966368,34.0362486,108.76083829999999,-1.1892369,-5.687212,-1.2800606,-0.12557681,0.040320598,0.0,0.05212308,-0.43834162,0.19844794,0.16034743,-0.024717107,-0.33650494,0.022251908,-2.7495403,1.1493925,-0.18045385,-1.7267498,-0.034063138,422.72272,2.118477,0.27377823,0.39357665,0.16236027,0.110067934,inf,inf,inf,inf,1,1,1,1,2,0,2,1,3,1,1,0
37379397,27966368,34.0362486,108.76083829999999,-1.1807307,-5.7417955,-1.2637893,-0.12557681,0.040320598,0.0,0.031727117,-0.45715097,0.19077101,0.15327044,-0.024717107,-0.33650494,0.022251908,0.024239618,0.03832519,-0.4393368,-1.7258068,-0.034063138,422.72272,2.1022058,0.28401196,0.39567012,0.16993539,0.111485824,inf,inf,inf,inf,1,1,1,1,2,0,2,1,3,1,1,0
37478772,27966368,34.0362486,108.76083829999999,-1.1712954,-5.793863,-1.2456679,-0.12557681,0.040320598,0.0,-0.0044081346,-0.48172286,0.19355208,0.15875049,-0.024717107,-0.33650494,0.022251908,-2.2311797,-0.82928896,0.4711541,-1.7241136,-0.034063138,422.72272,2.0840845,0.2730776,0.39282963,0.16234778,0.10959044,inf,inf,inf,inf,1,1,1,1,2,0,2,1,3,1,1,0
37577984,27966368,34.0362486,108.76083829999999,-1.1646109,-5.8455453,-1.2272551,-0.12557681,0.040320598,0.0,-0.015866265,-0.50159115,0.20068546,0.16802219,-0.024717107,-0.33650494,0.022251908,-1.4106022,0.30782798,1.4526749,-1.7198439,-0.034063138,422.72272,2.0656717,0.2833366,0.39489883,0.16974027,0.11097939,inf,inf,inf,inf,1,1,1,1,2,0,2,1,3,1,1,0
37677278,27966368,34.0362486,108.76083829999999,-1.1570492,-5.90188,-1.2074668,-0.12557681,0.040320598,0.0,-0.037860364,-0.53098196,0.2028052,0.17294955,-0.024717107,-0.33650494,0.022251908,-4.054135,0.19783714,0.25932434,-1.7153647,-0.034063138,422.72272,2.0458834,0.2724407,0.3945742,0.16150911,0.10935951,inf,inf,inf,inf,1,1,1,1,2,0,2,1,3,1,1,0
37766814,27966368,34.0362486,108.76083829999999,-1.1528602,-5.9548063,-1.1910201,-0.12557681,0.040320598,0.0,-0.038500085,-0.5725301,0.20972568,0.18070064,-0.024717107,-0.33650494,0.022251908,0.41979668,-1.9341316,1.5732607,-1.7111197,-0.034063138,422.72272,2.0294366,0.2816303,0.39594683,0.16801907,0.11054653,inf,inf,inf,inf,1,1,1,1,2,0,2,1,3,1,1,0
37880836,27966368,34.0362486,108.76083829999999,-1.143721,-6.0297523,-1.1694478,-0.12557681,0.040320598,0.0,-0.039522473,-0.6133307,0.20200582,0.17429887,-0.024717107,-0.33650494,0.022251908,-1.5798535,-0.79082984,0.96542364,-1.7084972,-0.034063138,422.72272,2.0078642,0.27182782,0.39381653,0.16073698,0.10886361,inf,inf,inf,inf,1,1,1,1,2,0,2,1,3,1,1,0
37980123,27966368,34.0362486,108.76083829999999,-1.1345555,-6.0986037,-1.1508412,-0.12557681,0.040320598,0.0,-0.022338958,-0.6358248,0.19141892,0.16545609,-0.024717107,-0.33650494,0.022251908,-0.7018984,-0.46700123,2.0702703,-1.7044493,-0.034063138,422.72272,1.9892578,0.2820821,0.39588982,0.16838282,0.11024702,inf,inf,inf,inf,1,1,1,1,2,0,2,1,3,1,1,0
38079417,27966368,34.0362486,108.76083829999999,-1.1173991,-6.1727467,-1.1335931,-0.12557681,0.040320598,0.0,0.023859968,-0.6550611,0.17853013,0.15401007,-0.024717107,-0.33650494,0.022251908,-1.0363475,-0.27370206,0.79906833,-1.701624,-0.034063138,422.72272,1.9720097,0.27122706,0.39307204,0.16032928,0.10838737,inf,inf,inf,inf,1,1,1,1,2,0,2,1,3,1,1,0
38178710,27966368,34.0362486,108.76083829999999,-1.0964515,-6.2481976,-1.1192952,-0.12557681,0.040320598,0.0,0.0788855,-0.6745314,0.17121479,0.14582874,-0.024717107,-0.33650494,0.022251908,0.32695672,-0.9569383,0.6437742,-1.6994293,-0.034063138,422.72272,1.9577117,0.28148958,0.39511883,0.16759355,0.10974653,inf,inf,inf,inf,1,1,1,1,2,0,2,1,3,1,1,0
38278157,27966368,34.0362486,108.76083829999999,-1.0745344,-6.325463,-1.1064746,-0.12557681,0.040320598,0.0,0.0996086,-0.67143655,0.15689246,0.13020971,-0.024717107,-0.33650494,0.022251908,-0.6084564,-0.27377313,-0.025712704,-1.6981242,-0.034063138,422.72272,1.9448912,0.2706548,0.39232355,0.1596561,0.10791621,inf,inf,inf,inf,1,1,1,1,2,0,2,1,3,1,1,0
38382262,27966368,34.0362486,108.76083829999999,-1.0521215,-6.4041877,-1.0933588,-0.12557681,0.040320598,0.0,0.14918005,-0.67325515,0.14851762,0.1214618,-0.024717107,-0.33650494,0.022251908,-0.12045753,0.6146016,0.023753185,-1.697487,-0.034063138,422.72272,1.9317753,0.28091085,0.39687017,0.1666365,0.109542735,inf,inf,inf,inf,1,1,1,1,2,0,2,1,3,1,1,0
38471628,27966368,34.0362486,108.76083829999999,-1.0291685,-6.471166,-1.083671,-0.12557681,0.040320598,0.0,0.15441139,-0.6699716,0.14143765,0.11374639,-0.024717107,-0.33650494,0.022251908,-0.22265989,-1.0536797,1.2441568,-1.700096,-0.034063138,422.72272,1.9220874,0.2691202,0.39334014,0.15813167,0.107536405,inf,inf,inf,inf,1,1,1,1,2,0,2,1,3,1,1,0
38580849,27966368,34.0362486,108.76083829999999,-1.002238,-6.549942,-1.0746566,-0.12557681,0.040320598,0.0,0.15304326,-0.65678024,0.11996793,0.09038235,-0.024717107,-0.33650494,0.022251908,-0.5289102,-1.2791235,1.4276809,-1.704124,-0.034063138,422.72272,1.9130731,0.2803673,0.3960598,0.16629066,0.10907162,inf,inf,inf,inf,1,1,1,1,2,0,2,1,3,1,1,0
38680143,27966368,34.0362486,108.76083829999999,-0.971289,-6.6212816,-1.0646993,-0.12557681,0.040320598,0.0,0.1524608,-0.6473358,0.09805696,0.07080212,-0.024717107,-0.33650494,0.022251908,-0.16659659,-1.1299392,0.87084454,-1.7088462,-0.034063138,422.72272,1.9031157,0.2695571,0.39325044,0.15833527,0.1072677,inf,inf,inf,inf,1,1,1,1,2,0,2,1,3,1,1,0
38779437,27966368,34.0362486,108.76083829999999,-0.94235784,-6.690357,-1.0583858,-0.12557681,0.040320598,0.0,0.14107123,-0.6360023,0.08062829,0.05389412,-0.024717107,-0.33650494,0.022251908,-0.48303863,-1.294733,2.212493,-1.7127501,-0.034063138,422.72272,1.8968024,0.27981168,0.39523727,0.16530485,0.10857503,inf,inf,inf,inf,1,1,1,1,2,0,2,1,3,1,1,0
38878730,27966368,34.0362486,108.76083829999999,-0.91548085,-6.7574377,-1.0533285,-0.12557681,0.040320598,0.0,0.12439719,-0.6305455,0.06258091,0.03689126,-0.024717107,-0.33650494,0.022251908,-3.9463074,-0.5932242,1.2352391,-1.7166054,-0.034063138,422.72272,1.8917451,0.26905933,0.39493585,0.1576154,0.1070863,inf,inf,inf,inf,1,1,1,1,2,0,2,1,3,1,1,0
38978024,27966368,34.0362486,108.76083829999999,-0.8928662,-6.8227816,-1.0496535,-0.12557681,0.040320598,0.0,0.10788956,-0.61910903,0.044242095,0.019373767,-0.024717107,-0.33650494,0.022251908,-0.3064957,0.5980211,0.52276504,-1.718599,-0.034063138,422.72272,1.8880701,0.2793034,0.3969244,0.16441697,0.10837992,inf,inf,inf,inf,1,1,1,1,2,0,2,1,3,1,1,0
39077339,27966368,34.0362486,108.76083829999999,-0.8695836,-6.892226,-1.0498136,-0.12557681,0.040320598,0.0,0.106432796,-0.63668346,0.03260684,0.0059840144,-0.024717107,-0.33650494,0.022251908,-1.6420383,-0.19841829,-0.08017022,-1.7199363,-0.034063138,422.72272,1.8882301,0.26859692,0.3940976,0.15666127,0.10660541,inf,inf,inf,inf,1,1,1,1,2,0,2,1,3,1,1,0
39176611,27966368,34.0362486,108.76083829999999,-0.84906495,-6.963229,-1.0516196,-0.12557681,0.040320598,0.0,0.08930914,-0.65159273,0.01831482,-0.01040887,-0.024717107,-0.33650494,0.022251908,-0.09090548,-0.041056518,-0.029027086,-1.7185197,-0.034063138,422.72272,1.8900361,0.27882254,0.39604938,0.1633248,0.107879624,inf,inf,inf,inf,1,1,1,1,2,0,2,1,3,1,1,0
39275908,27966368,34.0362486,108.76083829999999,-0.8319876,-7.0377603,-1.0550019,-0.12557681,0.040320598,0.0,0.093419656,-0.67867756,0.003997594,-0.026851587,-0.024717107,-0.33650494,0.022251908,-1.3966415,0.40165487,-1.581925,-1.7171141,-0.034063138,422.72272,1.8934183,0.26816505,0.39324334,0.15563673,0.10612393,inf,inf,inf,inf,1,1,1,1,2,0,2,1,3,1,1,0
39375345,27966368,34.0362486,108.76083829999999,-0.8191544,-7.114185,-1.0594343,-0.12557681,0.040320598,0.0,0.09001714,-0.702404,-0.010833771,-0.0430713,-0.024717107,-0.33650494,0.022251908,2.497595,0.60984206,-1.4366848,-1.714239,-0.034063138,422.72272,1.8978508,0.27836627,0.39516684,0.16213237,0.107377544,inf,inf,inf,inf,1,1,1,1,2,0,2,1,3,1,1,0
39479457,27966368,34.0362486,108.76083829999999,-0.8082299,-7.198832,-1.0639926,-0.12557681,0.040320598,0.0,0.074163824,-0.724696,-0.02183133,-0.053622827,-0.024717107,-0.33650494,0.022251908,-0.07697661,-1.1314625,0.7257037,-1.7129904,-0.034063138,422.72272,1.9024091,0.2677553,0.3948884,0.15467228,0.10594177,inf,inf,inf,inf,1,1,1,1,2,0,2,1,3,1,1,0
39578751,27966368,34.0362486,108.76083829999999,-0.800195,-7.280738,-1.0701475,-0.12557681,0.040320598,0.0,0.0584341,-0.73971355,-0.033564612,-0.06528499,-0.024717107,-0.33650494,0.022251908,-1.2929265,0.31411698,0.10741405,-1.711266,-0.034063138,422.72272,1.9085641,0.2779344,0.3968215,0.16170667,0.10722386,inf,inf,inf,inf,1,1,1,1,2,0,2,1,3,1,1,0
39678047,27966368,34.0362486,108.76083829999999,-0.7943748,-7.364738,-1.0815206,-0.12557681,0.040320598,0.0,0.04964807,-0.748174,-0.049418457,-0.08510667,-0.024717107,-0.33650494,0.022251908,-1.1481831,-1.0931685,0.6142304,-1.7095618,-0.034063138,422.72272,1.9199371,0.26731795,0.39403737,0.15418799,0.1055122,inf,inf,inf,inf,1,1,1,1,2,0,2,1,3,1,1,0
39777338,27966368,34.0362486,108.76083829999999,-0.79042184,-7.4467354,-1.0952231,-0.12557681,0.040320598,0.0,0.03463939,-0.7408694,-0.06789495,-0.10748842,-0.024717107,-0.33650494,0.022251908,-2.2968376,-0.5319164,1.0978484,-1.7082695,-0.034063138,422.72272,1.9336395,0.27748448,0.395953,0.16053872,0.106746845,inf,inf,inf,inf,1,1,1,1,2,0,2,1,3,1,1,0
39876631,27966368,34.0362486,108.76083829999999,-0.7832911,-7.5293946,-1.1093884,-0.12557681,0.040320598,0.0,0.0224346,-0.73762995,-0.08695942,-0.1286376,-0.024717107,-0.33650494,0.022251908,-3.0367937,-1.0990397,0.9237413,-1.709096,-0.034063138,422.72272,1.9478049,0.26691544,0.39318857,0.15314953,0.105055794,inf,inf,inf,inf,1,1,1,1,2,0,2,1,3,1,1,0
39980890,27966368,34.0362486,108.76083829999999,-0.77595145,-7.613777,-1.1266603,-0.12557681,0.040320598,0.0,0.036613364,-0.7274411,-0.11380511,-0.15804635,-0.024717107,-0.33650494,0.022251908,1.6076294,0.009566392,-1.7277269,-1.7108812,-0.034063138,422.72272,1.9650769,0.27705082,0.39507687,0.15946153,0.10628039,inf,inf,inf,inf,1,1,1,1,2,0,2,1,3,1,1,0
40080183,27966368,34.0362486,108.76083829999999,-0.7695935,-7.6960883,-1.1443655,-0.12557681,0.040320598,0.0,0.029957892,-0.72283345,-0.13270734,-0.17806637,-0.024717107,-0.33650494,0.022251908,2.9412913,-0.13321452,-0.5817877,-1.714326,-0.034063138,422.72272,1.9827821,0.26648897,0.39482072,0.1521986,0.104892395,inf,inf,inf,inf,1,1,1,1,2,0,2,1,3,1,1,0
40179660,27966368,34.0362486,108.76083829999999,-0.7644349,-7.7767167,-1.1647208,-0.12557681,0.040320598,0.0,0.018595308,-0.7186909,-0.15322793,-0.19995257,-0.024717107,-0.33650494,0.022251908,2.1287346,-1.415,0.93667316,-1.7198762,-0.034063138,422.72272,2.0031374,0.27660966,0.39670163,0.15889826,0.106132,inf,inf,inf,inf,1,1,1,1,2,0,2,1,3,1,1,0
40273807,27966368,34.0362486,108.76083829999999,-0.758954,-7.852331,-1.1862657,-0.12557681,0.040320598,0.0,0.029402863,-0.7066576,-0.17246021,-0.22090103,-0.024717107,-0.33650494,0.022251908,3.5331144,-0.15806195,-1.2499804,-1.7225306,-0.034063138,422.72272,2.0246823,0.26511726,0.39325392,0.15113077,0.10429879,inf,inf,inf,inf,1,1,1,1,2,0,2,1,3,1,1,0
40373100,27966368,34.0362486,108.76083829999999,-0.7533293,-7.93061,-1.2098767,-0.12557681,0.040320598,0.0,0.012347672,-0.69072556,-0.18907908,-0.23827699,-0.024717107,-0.33650494,0.022251908,2.4897404,1.8153958,-1.7031325,-1.7246132,-0.034063138,422.72272,2.048293,0.2751344,0.39510444,0.15769744,0.105525754,inf,inf,inf,inf,1,1,1,1,2,0,2,1,3,1,1,0
40482323,27966368,34.0362486,108.76083829999999,-0.74808794,-8.015003,-1.2328544,-0.12557681,0.040320598,0.0,-0.0024848175,-0.6761805,-0.19467331,-0.24030085,-0.024717107,-0.33650494,0.022251908,0.8769901,-0.32849777,0.55002034,-1.7245113,-0.034063138,422.72272,2.071271,0.26576895,0.3930755,0.15123565,0.104077406,inf,inf,inf,inf,1,1,1,1,2,0,2,1,3,1,1,0
40571687,27966368,34.0362486,108.76083829999999,-0.7448741,-8.081135,-1.2510478,-0.12557681,0.040320598,0.0,-0.012374027,-0.6666795,-0.1907617,-0.23316696,-0.024717107,-0.33650494,0.022251908,-2.353249,-0.68471414,0.62036914,-1.7242852,-0.034063138,422.72272,2.0894644,0.2748121,0.39422435,0.1567212,0.10509198,inf,inf,inf,inf,1,1,1,1,2,0,2,1,3,1,1,0
40680914,27966368,34.0362486,108.76083829999999,-0.7406304,-8.1585455,-1.2728448,-0.12557681,0.040320598,0.0,-0.011111151,-0.65188104,-0.18341616,-0.22262262,-0.024717107,-0.33650494,0.022251908,0.42667696,1.1207207,0.018275304,-1.7232071,-0.034063138,422.72272,2.1112614,0.26531556,0.3922131,0.15009306,0.10364435,inf,inf,inf,inf,1,1,1,1,2,0,2,1,3,1,1,0
40780204,27966368,34.0362486,108.76083829999999,-0.737742,-8.225678,-1.2918725,-0.12557681,0.040320598,0.0,-0.011448191,-0.6378392,-0.16674565,-0.20360774,-0.024717107,-0.33650494,0.022251908,-1.7786579,-0.6608662,1.2870492,-1.7246745,-0.034063138,422.72272,2.130289,0.2753471,0.39654645,0.15583812,0.10509908,inf,inf,inf,inf,1,1,1,1,2,0,2,1,3,1,1,0
40879497,27966368,34.0362486,108.76083829999999,-0.73153096,-8.299645,-1.3058933,-0.12557681,0.040320598,0.0,-0.021275943,-0.63306993,-0.15206234,-0.18320358,-0.024717107,-0.33650494,0.022251908,-2.6304486,-0.68661594,0.9765033,-1.7271734,-0.034063138,422.72272,2.1443098,0.2648754,0.39380547,0.14877576,0.10347975,inf,inf,inf,inf,1,1,1,1,2,0,2,1,3,1,1,0
40978882,27966368,34.0362486,108.76083829999999,-0.7267109,-8.373385,-1.3190683,-0.12557681,0.040320598,0.0,-0.024094855,-0.6257063,-0.13718845,-0.16392103,-0.024717107,-0.33650494,0.022251908,0.11848194,-0.06791787,1.4129491,-1.7290303,-0.034063138,422.72272,2.1574848,0.27484834,0.395617,0.15438308,0.10463502,inf,inf,inf,inf,1,1,1,1,2,0,2,1,3,1,1,0
41073152,27966368,34.0362486,108.76083829999999,-0.7220051,-8.44141,-1.3321183,-0.12557681,0.040320598,0.0,-0.03668683,-0.6137466,-0.1337148,-0.15874231,-0.024717107,-0.33650494,0.022251908,0.34565732,0.30096427,-0.23861364,-1.7299732,-0.034063138,422.72272,2.1705348,0.26344866,0.39223558,0.14684944,0.10286098,inf,inf,inf,inf,1,1,1,1,2,0,2,1,3,1,1,0
41182354,27966368,34.0362486,108.76083829999999,-0.71855366,-8.516705,-1.3479207,-0.12557681,0.040320598,0.0,-0.047094837,-0.597104,-0.11829868,-0.14329636,-0.024717107,-0.33650494,0.022251908,1.6376879,-1.1429579,0.6973146,-1.7291102,-0.034063138,422.72272,2.1863372,0.27431387,0.39468312,0.15336324,0.10419769,inf,inf,inf,inf,1,1,1,1,2,0,2,1,3,1,1,0
41271718,27966368,34.0362486,108.76083829999999,-0.7182586,-8.572537,-1.3619707,-0.12557681,0.040320598,0.0,-0.055601943,-0.57565933,-0.1045835,-0.13183147,-0.024717107,-0.33650494,0.022251908,-0.7461097,-1.5852381,0.9777552,-1.7271882,-0.034063138,422.72272,2.2003872,0.26294434,0.39380506,0.14602472,0.10272942,inf,inf,inf,inf,1,1,1,1,2,0,2,1,3,1,1,0
41380932,27966368,34.0362486,108.76083829999999,-0.72044104,-8.636103,-1.3790206,-0.12557681,0.040320598,0.0,-0.055649128,-0.5501117,-0.101824574,-0.13191651,-0.024717107,-0.33650494,0.022251908,0.8111558,1.7144119,-0.27980006,-1.7212955,-0.034063138,422.72272,2.217437,0.27376342,0.39625397,0.15209714,0.104039095,inf,inf,inf,inf,1,1,1,1,2,0,2,1,3,1,1,0
41480225,27966368,34.0362486,108.76083829999999,-0.7202552,-8.694462,-1.3944228,-0.12557681,0.040320598,0.0,-0.07286379,-0.5247655,-0.09928164,-0.13195515,-0.024717107,-0.33650494,0.022251908,0.4786359,-0.5470833,0.75585717,-1.7175131,-0.034063138,422.72272,2.2328393,0.26345548,0.3935389,0.14543945,0.102467924,inf,inf,inf,inf,1,1,1,1,2,0,2,1,3,1,1,0
41574553,27966368,34.0362486,108.76083829999999,-0.72103834,-8.747602,-1.4087479,-0.12557681,0.040320598,0.0,-0.07579736,-0.51102835,-0.09295071,-0.12782644,-0.024717107,-0.33650494,0.022251908,-0.3235031,-0.6919173,0.61960006,-1.7131343,-0.034063138,422.72272,2.2471645,0.27226073,0.3946087,0.15039721,0.10343077,inf,inf,inf,inf,1,1,1,1,2,0,2,1,3,1,1,0
41673868,27966368,34.0362486,108.76083829999999,-0.7205887,-8.806636,-1.4219348,-0.12557681,0.040320598,0.0,-0.07275524,-0.4943862,-0.086380325,-0.12183579,-0.024717107,-0.33650494,0.022251908,0.0035244513,-0.31120226,1.3686155,-1.7083769,-0.034063138,422.72272,2.2603514,0.26208082,0.39194107,0.14395556,0.10188658,inf,inf,inf,inf,1,1,1,1,2,0,2,1,3,1,1,0
41773171,27966368,34.0362486,108.76083829999999,-0.72102815,-8.864904,-1.435179,-0.12557681,0.040320598,0.0,-0.08963388,-0.47385144,-0.08978558,-0.12580444,-0.024717107,-0.33650494,0.022251908,-3.1168685,-1.7454252,1.3794585,-1.7045649,-0.034063138,422.72272,2.2735956,0.27179623,0.39365625,0.14976573,0.10302466,inf,inf,inf,inf,1,1,1,1,2,0,2,1,3,1,1,0
41882363,27966368,34.0362486,108.76083829999999,-0.7193374,-8.926305,-1.4525337,-0.12557681,0.040320598,0.0,-0.07226351,-0.46594858,-0.096861266,-0.1357572,-0.024717107,-0.33650494,0.022251908,2.1231215,-0.62857884,0.117654085,-1.700224,-0.034063138,422.72272,2.2909503,0.26267168,0.39169642,0.14408271,0.10168577,inf,inf,inf,inf,1,1,1,1,2,0,2,1,3,1,1,0
41971728,27966368,34.0362486,108.76083829999999,-0.71876633,-8.973832,-1.4675158,-0.12557681,0.040320598,0.0,-0.07023393,-0.44444335,-0.09529597,-0.13705142,-0.024717107,-0.33650494,0.022251908,0.7095233,1.2615625,-0.62169975,-1.6984321,-0.034063138,422.72272,2.3059323,0.27142254,0.3952398,0.14904441,0.10292006,inf,inf,inf,inf,1,1,1,1,2,0,2,1,3,1,1,0
42080991,27966368,34.0362486,108.76083829999999,-0.7207521,-9.031892,-1.4856637,-0.12557681,0.040320598,0.0,-0.060973525,-0.42456496,-0.07758307,-0.123084895,-0.024717107,-0.33650494,0.022251908,0.14547186,0.8881459,-0.84068495,-1.6997938,-0.034063138,422.72272,2.3240802,0.262218,0.393254,0.14330551,0.10157068,inf,inf,inf,inf,1,1,1,1,2,0,2,1,3,1,1,0
42180244,27966368,34.0362486,108.76083829999999,-0.72427684,-9.082494,-1.4996608,-0.12557681,0.040320598,0.0,-0.07691648,-0.40833002,-0.06284659,-0.11090547,-0.024717107,-0.33650494,0.022251908,-2.0083902,1.2173055,-1.1881615,-1.7036505,-0.034063138,422.72272,2.3380773,0.2719316,0.39497584,0.1486719,0.102683134,inf,inf,inf,inf,1,1,1,1,2,0,2,1,3,1,1,0
42279542,27966368,34.0362486,108.76083829999999,-0.7258902,-9.132214,-1.5088041,-0.12557681,0.040320598,0.0,-0.07667488,-0.3936395,-0.046857346,-0.09395334,-0.024717107,-0.33650494,0.022251908,0.6100346,1.0742022,0.11043284,-1.7073284,-0.034063138,422.72272,2.3472207,0.26184788,0.39234772,0.14241819,0.10119226,inf,inf,inf,inf,1,1,1,1,2,0,2,1,3,1,1,0
42378831,27966368,34.0362486,108.76083829999999,-0.72800946,-9.178524,-1.5157815,-0.12557681,0.040320598,0.0,-0.062097743,-0.38582996,-0.022732714,-0.06860324,-0.024717107,-0.33650494,0.022251908,-0.25810957,-0.2198409,1.274688,-1.7107065,-0.034063138,422.72272,2.354198,0.2715216,0.39404652,0.1476703,0.10229192,inf,inf,inf,inf,1,1,1,1,2,0,2,1,3,1,1,0
42478125,27966368,34.0362486,108.76083829999999,-0.7310535,-9.222156,-1.5199952,-0.12557681,0.040320598,0.0,-0.07466349,-0.3655042,-0.011691569,-0.055093847,-0.024717107,-0.33650494,0.022251908,-1.5664543,-1.2663813,1.9055138,-1.7142326,-0.034063138,422.72272,2.3584118,0.26136622,0.39144084,0.14152353,0.100813046,inf,inf,inf,inf,1,1,1,1,2,0,2,1,3,1,1,0
42577443,27966368,34.0362486,108.76083829999999,-0.73544794,-9.262376,-1.5247464,-0.12557681,0.040320598,0.0,-0.065028176,-0.33972818,-0.00058895594,-0.04354361,-0.024717107,-0.33650494,0.022251908,-1.711103,0.22491015,1.3278282,-1.7159047,-0.034063138,422.72272,2.363163,0.27098912,0.39311635,0.14678302,0.10190378,inf,inf,inf,inf,1,1,1,1,2,0,2,1,3,1,1,0
42676712,27966368,34.0362486,108.76083829999999,-0.73780143,-9.298557,-1.5334201,-0.12557681,0.040320598,0.0,-0.07561683,-0.3242315,0.009951686,-0.037438646,-0.024717107,-0.33650494,0.022251908,-2.1045587,-0.7029187,1.9479898,-1.71799,-0.034063138,422.72272,2.3718367,0.26089498,0.39300185,0.14073178,0.100713246,inf,inf,inf,inf,1,1,1,1,2,0,2,1,3,1,1,0
42776008,27966368,34.0362486,108.76083829999999,-0.74049765,-9.331387,-1.5417535,-0.12557681,0.040320598,0.0,-0.07749454,-0.3096315,0.015797336,-0.0358307,-0.024717107,-0.33650494,0.022251908,-1.1168786,-1.6503587,1.9955441,-1.7195451,-0.034063138,422.72272,2.38017,0.27047366,0.39468673,0.1460329,0.101808675,inf,inf,inf,inf,1,1,1,1,2,0,2,1,3,1,1,0
42875448,27966368,34.0362486,108.76083829999999,-0.7411782,-9.364496,-1.5499208,-0.12557681,0.040320598,0.0,-0.09042125,-0.3140624,0.012256169,-0.043479398,-0.024717107,-0.33650494,0.022251908,-1.3129992,-0.10043871,0.07682888,-1.7204523,-0.034063138,422.72272,2.3883374,0.26047674,0.3920896,0.14008178,0.10035442,inf,inf,inf,inf,1,1,1,1,2,0,2,1,3,1,1,0
42974590,27966368,34.0362486,108.76083829999999,-0.7427285,-9.397341,-1.5574259,-0.12557681,0.040320598,0.0,-0.09775807,-0.31234097,0.01988215,-0.03939193,-0.024717107,-0.33650494,0.022251908,-1.0647185,0.48977065,0.61658543,-1.7221699,-0.034063138,422.72272,2.3958423,0.27001727,0.39375243,0.14528778,0.10143543,inf,inf,inf,inf,1,1,1,1,2,0,2,1,3,1,1,0
43073889,27966368,34.0362486,108.76083829999999,-0.74713284,-9.433843,-1.5647532,-0.12557681,0.040320598,0.0,-0.093661286,-0.3483352,0.04136107,-0.0218576,-0.024717107,-0.33650494,0.022251908,0.47313568,-1.58936,1.5165203,-1.7242508,-0.034063138,422.72272,2.4031696,0.26006767,0.39118415,0.13950399,0.09999922,inf,inf,inf,inf,1,1,1,1,2,0,2,1,3,1,1,0
43178146,27966368,34.0362486,108.76083829999999,-0.75398684,-9.475482,-1.5701501,-0.12557681,0.040320598,0.0,-0.11202991,-0.37911147,0.05470715,-0.012022385,-0.024717107,-0.33650494,0.022251908,0.13543266,-0.22638305,0.7744168,-1.7267731,-0.034063138,422.72272,2.4085667,0.26957327,0.39282554,0.14466056,0.101077475,inf,inf,inf,inf,1,1,1,1,2,0,2,1,3,1,1,0
43277439,27966368,34.0362486,108.76083829999999,-0.7566747,-9.51879,-1.5747688,-0.12557681,0.040320598,0.0,-0.1121442,-0.41227025,0.07636034,0.005851342,-0.024717107,-0.33650494,0.022251908,-0.25467202,-0.3727992,1.5418913,-1.727624,-0.034063138,422.72272,2.4131854,0.25970387,0.39028502,0.13887154,0.09965292,inf,inf,inf,inf,1,1,1,1,2,0,2,1,3,1,1,0
43376734,27966368,34.0362486,108.76083829999999,-0.75964046,-9.564573,-1.5760121,-0.12557681,0.040320598,0.0,-0.12749757,-0.4446301,0.09139044,0.0192271,-0.024717107,-0.33650494,0.022251908,-3.546511,-0.5117389,1.3273487,-1.7280298,-0.034063138,422.72272,2.4144287,0.26918048,0.39439422,0.14420909,0.101001695,inf,inf,inf,inf,1,1,1,1,2,0,2,1,3,1,1,0
43476031,27966368,34.0362486,108.76083829999999,-0.76533127,-9.614323,-1.5782449,-0.12557681,0.040320598,0.0,-0.11814849,-0.4721134,0.108021624,0.03195675,-0.024717107,-0.33650494,0.022251908,-1.7763793,-0.031473037,1.1701819,-1.7262887,-0.034063138,422.72272,2.4166615,0.25933838,0.39184073,0.1384751,0.09958513,inf,inf,inf,inf,1,1,1,1,2,0,2,1,3,1,1,0
43575320,27966368,34.0362486,108.76083829999999,-0.77411324,-9.666612,-1.5781772,-0.12557681,0.040320598,0.0,-0.13581662,-0.5086384,0.11868522,0.040130004,-0.024717107,-0.33650494,0.022251908,0.18406864,-0.9646282,0.87799805,-1.7254941,-0.034063138,422.72272,2.4165938,0.26878396,0.39347968,0.14353217,0.100645795,inf,inf,inf,inf,1,1,1,1,2,0,2,1,3,1,1,0
43674733,27966368,34.0362486,108.76083829999999,-0.77740026,-9.7257395,-1.5733845,-0.12557681,0.040320598,0.0,-0.13652077,-0.5512335,0.13357116,0.055941273,-0.024717107,-0.33650494,0.022251908,4.5362644,-2.1518302,1.267751,-1.7238804,-0.034063138,422.72272,2.411801,0.25897855,0.39096114,0.13793582,0.09925343,inf,inf,inf,inf,1,1,1,1,2,0,2,1,3,1,1,0
43778872,27966368,34.0362486,108.76083829999999,-0.78184664,-9.78958,-1.5652939,-0.12557681,0.040320598,0.0,-0.15334699,-0.56020355,0.15088001,0.07515451,-0.024717107,-0.33650494,0.022251908,-1.4485515,-0.33728608,1.5113937,-1.7223346,-0.034063138,422.72272,2.4037104,0.2683899,0.39257947,0.14295337,0.10031,inf,inf,inf,inf,1,1,1,1,2,0,2,1,3,1,1,0
43878168,27966368,34.0362486,108.76083829999999,-0.7877753,-9.852508,-1.5561547,-0.12557681,0.040320598,0.0,-0.14802065,-0.58606505,0.16670042,0.092787094,-0.024717107,-0.33650494,0.022251908,-0.9643623,-0.83374655,0.636963,-1.720029,-0.034063138,422.72272,2.3945713,0.25865987,0.39007914,0.13769385,0.098942325,inf,inf,inf,inf,1,1,1,1,2,0,2,1,3,1,1,0
43977459,27966368,34.0362486,108.76083829999999,-0.7948161,-9.915833,-1.5449951,-0.12557681,0.040320598,0.0,-0.1309374,-0.5808625,0.17317198,0.10141195,-0.024717107,-0.33650494,0.022251908,2.197455,0.34803748,-1.0804077,-1.7187431,-0.034063138,422.72272,2.3834116,0.26805612,0.39414594,0.14272034,0.10026336,inf,inf,inf,inf,1,1,1,1,2,0,2,1,3,1,1,0
44076753,27966368,34.0362486,108.76083829999999,-0.8008066,-9.975936,-1.5409604,-0.12557681,0.040320598,0.0,-0.13053495,-0.5701958,0.17020482,0.09268869,-0.024717107,-0.33650494,0.022251908,2.769194,1.0617589,-1.7446636,-1.7180053,-0.034063138,422.72272,2.379377,0.2583417,0.3916165,0.13717245,0.09889094,inf,inf,inf,inf,1,1,1,1,2,0,2,1,3,1,1,0
44176049,27966368,34.0362486,108.76083829999999,-0.8055,-10.032547,-1.5396318,-0.12557681,0.040320598,0.0,-0.101735674,-0.5559362,0.17022602,0.08574154,-0.024717107,-0.33650494,0.022251908,-1.8070288,0.03419538,0.9733814,-1.7179989,-0.034063138,422.72272,2.3780484,0.26770902,0.39320973,0.14224316,0.09993252,inf,inf,inf,inf,1,1,1,1,2,0,2,1,3,1,1,0
44280305,27966368,34.0362486,108.76083829999999,-0.8049323,-10.092626,-1.5411901,-0.12557681,0.040320598,0.0,-0.09082442,-0.5247126,0.14294146,0.049440686,-0.024717107,-0.33650494,0.022251908,-0.84590906,2.6484761,-1.6679116,-1.7167255,-0.034063138,422.72272,2.3796067,0.2580564,0.39070788,0.13684939,0.09858356,inf,inf,inf,inf,1,1,1,1,2,0,2,1,3,1,1,0
44379601,27966368,34.0362486,108.76083829999999,-0.8025244,-10.14593,-1.543733,-0.12557681,0.040320598,0.0,-0.05090463,-0.49898657,0.1466878,0.046178423,-0.024717107,-0.33650494,0.022251908,0.45175922,0.5391906,0.44747418,-1.715303,-0.034063138,422.72272,2.3821495,0.26740584,0.39228243,0.14195827,0.099624276,inf,inf,inf,inf,1,1,1,1,2,0,2,1,3,1,1,0
44478992,27966368,34.0362486,108.76083829999999,-0.79252595,-10.19914,-1.5442283,-0.12557681,0.040320598,0.0,-0.020693464,-0.477186,0.14859626,0.044562828,-0.024717107,-0.33650494,0.022251908,-1.5053662,-0.08234048,1.8437992,-1.716361,-0.034063138,422.72272,2.382645,0.25782496,0.3898203,0.13699068,0.09831091,inf,inf,inf,inf,1,1,1,1,2,0,2,1,3,1,1,0
44578191,27966368,34.0362486,108.76083829999999,-0.7836406,-10.248007,-1.5444365,-0.12557681,0.040320598,0.0,-0.009033059,-0.4407355,0.12668417,0.021161806,-0.024717107,-0.33650494,0.022251908,-1.1419948,0.4187614,0.43844524,-1.7180802,-0.034063138,422.72272,2.382853,0.26718125,0.39138642,0.14203651,0.0993508,inf,inf,inf,inf,1,1,1,1,2,0,2,1,3,1,1,0
44677480,27966368,34.0362486,108.76083829999999,-0.76992774,-10.294993,-1.5497891,-0.12557681,0.040320598,0.0,0.015911117,-0.4162873,0.11551767,0.0039714654,-0.024717107,-0.33650494,0.022251908,-0.12809868,-0.5640138,-0.67135525,-1.7197105,-0.034063138,422.72272,2.3882055,0.25749707,0.3913676,0.13673149,0.0982874,inf,inf,inf,inf,1,1,1,1,2,0,2,1,3,1,1,0
44767038,27966368,34.0362486,108.76083829999999,-0.7588829,-10.334116,-1.5547851,-0.12557681,0.040320598,0.0,0.012333565,-0.3888691,0.12191755,0.005726533,-0.024717107,-0.33650494,0.022251908,-2.2047784,-0.0518969,0.7206076,-1.721214,-0.034063138,422.72272,2.3932016,0.26587605,0.39229363,0.1412857,0.0991781,inf,inf,inf,inf,1,1,1,1,2,0,2,1,3,1,1,0
44881055,27966368,34.0362486,108.76083829999999,-0.7438144,-10.381659,-1.554876,-0.12557681,0.040320598,0.0,0.04831231,-0.3826889,0.13898496,0.022304568,-0.024717107,-0.33650494,0.022251908,1.3442523,-0.7420927,1.4596577,-1.7236032,-0.034063138,422.72272,2.3932924,0.25721416,0.3904822,0.13646187,0.09800996,inf,inf,inf,inf,1,1,1,1,2,0,2,1,3,1,1,0
44980326,27966368,34.0362486,108.76083829999999,-0.7315509,-10.423166,-1.551498,-0.12557681,0.040320598,0.0,0.032139257,-0.3914972,0.14450212,0.030131109,-0.024717107,-0.33650494,0.022251908,-2.4871018,-2.0265348,1.3592672,-1.7263865,-0.034063138,422.72272,2.3899145,0.26653904,0.39205083,0.1417462,0.099056356,inf,inf,inf,inf,1,1,1,1,2,0,2,1,3,1,1,0
45079620,27966368,34.0362486,108.76083829999999,-0.71993136,-10.466153,-1.5502167,-0.12557681,0.040320598,0.0,0.041593324,-0.41256455,0.15539397,0.040356565,-0.024717107,-0.33650494,0.022251908,-2.4971972,-1.0790874,2.0274508,-1.7285403,-0.034063138,422.72272,2.3886333,0.25696164,0.38961914,0.13632071,0.09774089,inf,inf,inf,inf,1,1,1,1,2,0,2,1,3,1,1,0
45178914,27966368,34.0362486,108.76083829999999,-0.7113551,-10.510991,-1.5481615,-0.12557681,0.040320598,0.0,0.014001609,-0.44216093,0.15524854,0.039910287,-0.024717107,-0.33650494,0.022251908,-2.2017274,-0.5614182,0.7399066,-1.7322787,-0.034063138,422.72272,2.386578,0.26627055,0.39117023,0.14124876,0.09876652,inf,inf,inf,inf,1,1,1,1,2,0,2,1,3,1,1,0
45278273,27966368,34.0362486,108.76083829999999,-0.7026486,-10.562041,-1.5451875,-0.12557681,0.040320598,0.0,0.01793395,-0.49542594,0.17314306,0.056989927,-0.024717107,-0.33650494,0.022251908,-0.89210486,-1.2934322,0.74678636,-1.7348976,-0.034063138,422.72272,2.383604,0.25670296,0.3887621,0.13590601,0.097468495,inf,inf,inf,inf,1,1,1,1,2,0,2,1,3,1,1,0
45382465,27966368,34.0362486,108.76083829999999,-0.6974932,-10.619988,-1.5381542,-0.12557681,0.040320598,0.0,-0.010244034,-0.5426696,0.19600296,0.08042103,-0.024717107,-0.33650494,0.022251908,1.3511816,-1.5716859,1.0179753,-1.7348173,-0.034063138,422.72272,2.3765707,0.2659894,0.39029583,0.14077884,0.09848726,inf,inf,inf,inf,1,1,1,1,2,0,2,1,3,1,1,0
45471829,27966368,34.0362486,108.76083829999999,-0.6906844,-10.673438,-1.526418,-0.12557681,0.040320598,0.0,-0.04414443,-0.5795167,0.20311454,0.09246891,-0.024717107,-0.33650494,0.022251908,-1.268101,0.096936345,-1.0310079,-1.7340754,-0.034063138,422.72272,2.3648345,0.25557965,0.38968062,0.1349675,0.09729265,inf,inf,inf,inf,1,1,1,1,2,0,2,1,3,1,1,0
45581054,27966368,34.0362486,108.76083829999999,-0.6849757,-10.742941,-1.5076154,-0.12557681,0.040320598,0.0,-0.06594594,-0.6267824,0.22689539,0.124337606,-0.024717107,-0.33650494,0.022251908,-3.393841,-0.92419505,1.2916749,-1.7295955,-0.034063138,422.72272,2.346032,0.26574442,0.391869,0.1405285,0.098474376,inf,inf,inf,inf,1,1,1,1,2,0,2,1,3,1,1,0
45680347,27966368,34.0362486,108.76083829999999,-0.683424,-10.809746,-1.4884992,-0.12557681,0.040320598,0.0,-0.06254669,-0.6589723,0.24323332,0.1476838,-0.024717107,-0.33650494,0.022251908,-3.4746468,0.1923879,1.121166,-1.7253233,-0.034063138,422.72272,2.3269157,0.25633436,0.38947502,0.135306,0.09719979,inf,inf,inf,inf,1,1,1,1,2,0,2,1,3,1,1,0
45779694,27966368,34.0362486,108.76083829999999,-0.68611366,-10.877418,-1.467874,-0.12557681,0.040320598,0.0,-0.086331494,-0.6661931,0.24317619,0.15444286,-0.024717107,-0.33650494,0.022251908,-1.5320466,-0.42958137,0.7476845,-1.7229812,-0.034063138,422.72272,2.3062906,0.26559165,0.3910116,0.14018057,0.098206945,inf,inf,inf,inf,1,1,1,1,2,0,2,1,3,1,1,0
45878934,27966368,34.0362486,108.76083829999999,-0.6892602,-10.948338,-1.4419312,-0.12557681,0.040320598,0.0,-0.09249349,-0.68413657,0.25056145,0.17251123,-0.024717107,-0.33650494,0.022251908,3.43026,-1.9029164,0.72178286,-1.7194577,-0.034063138,422.72272,2.2803478,0.25610596,0.38863423,0.13498078,0.09694516,inf,inf,inf,inf,1,1,1,1,2,0,2,1,3,1,1,0
45978228,27966368,34.0362486,108.76083829999999,-0.6950995,-11.0192375,-1.4160116,-0.12557681,0.040320598,0.0,-0.12104373,-0.6657856,0.2451258,0.17603707,-0.024717107,-0.33650494,0.022251908,-4.327745,0.6995866,-1.4639363,-1.7167574,-0.034063138,422.72272,2.2544281,0.26534185,0.39015424,0.13986264,0.097959645,inf,inf,inf,inf,1,1,1,1,2,0,2,1,3,1,1,0
46077545,27966368,34.0362486,108.76083829999999,-0.69810444,-11.087441,-1.3921733,-0.12557681,0.040320598,0.0,-0.14193217,-0.6560698,0.23712322,0.17462732,-0.024717107,-0.33650494,0.022251908,-0.8734981,0.573399,0.7793584,-1.7134589,-0.034063138,422.72272,2.2305899,0.25590336,0.38779882,0.13470124,0.09669115,inf,inf,inf,inf,1,1,1,1,2,0,2,1,3,1,1,0
46176815,27966368,34.0362486,108.76083829999999,-0.7021883,-11.152121,-1.3690149,-0.12557681,0.040320598,0.0,-0.13204116,-0.63262886,0.24082637,0.18408687,-0.024717107,-0.33650494,0.022251908,1.2230605,-1.7126381,2.0132399,-1.7112604,-0.034063138,422.72272,2.2074313,0.2651237,0.3917412,0.13960767,0.097955935,inf,inf,inf,inf,1,1,1,1,2,0,2,1,3,1,1,0
46276128,27966368,34.0362486,108.76083829999999,-0.7109504,-11.212118,-1.3491912,-0.12557681,0.040320598,0.0,-0.15546441,-0.6034738,0.22855651,0.17406777,-0.024717107,-0.33650494,0.022251908,-0.4236279,0.40526372,-0.19577853,-1.7098228,-0.034063138,422.72272,2.1876078,0.25568214,0.38936296,0.13454014,0.09670709,inf,inf,inf,inf,1,1,1,1,2,0,2,1,3,1,1,0
46375556,27966368,34.0362486,108.76083829999999,-0.7217939,-11.270525,-1.3300682,-0.12557681,0.040320598,0.0,-0.12442967,-0.59935886,0.21948545,0.16685276,-0.024717107,-0.33650494,0.022251908,2.9951322,0.20018107,-2.0573297,-1.7113165,-0.034063138,422.72272,2.1684847,0.26489115,0.39088687,0.13943289,0.097713605,inf,inf,inf,inf,1,1,1,1,2,0,2,1,3,1,1,0
46474696,27966368,34.0362486,108.76083829999999,-0.7278904,-11.329975,-1.3139085,-0.12557681,0.040320598,0.0,-0.13127643,-0.60569614,0.21593055,0.16250953,-0.024717107,-0.33650494,0.022251908,-0.23840103,0.21954525,-2.1247122,-1.7152609,-0.034063138,422.72272,2.152325,0.25538707,0.38852492,0.13428769,0.09645676,inf,inf,inf,inf,1,1,1,1,2,0,2,1,3,1,1,0
46573989,27966368,34.0362486,108.76083829999999,-0.7308263,-11.391546,-1.2981942,-0.12557681,0.040320598,0.0,-0.07722778,-0.62548,0.22556391,0.1707668,-0.024717107,-0.33650494,0.022251908,-0.35431072,2.1781318,-2.7154243,-1.7190592,-0.034063138,422.72272,2.1366107,0.26457402,0.39002478,0.13914812,0.09746567,inf,inf,inf,inf,1,1,1,1,2,0,2,1,3,1,1,0
46678248,27966368,34.0362486,108.76083829999999,-0.725724,-11.459679,-1.2792456,-0.12557681,0.040320598,0.0,-0.055419672,-0.64053184,0.22869518,0.17481637,-0.024717107,-0.33650494,0.022251908,1.9615891,-1.0590698,1.3182206,-1.7236568,-0.034063138,422.72272,2.1176622,0.2550856,0.3876845,0.13392429,0.09621823,inf,inf,inf,inf,1,1,1,1,2,0,2,1,3,1,1,0
46777542,27966368,34.0362486,108.76083829999999,-0.7166513,-11.525174,-1.2596755,-0.12557681,0.040320598,0.0,-0.03440073,-0.64345556,0.23087835,0.17946352,-0.024717107,-0.33650494,0.022251908,-3.1749465,1.448162,-0.24967326,-1.7276334,-0.034063138,422.72272,2.098092,0.26424783,0.38916847,0.13883433,0.0972132,inf,inf,inf,inf,1,1,1,1,2,0,2,1,3,1,1,0
46876884,27966368,34.0362486,108.76083829999999,-0.7071525,-11.594665,-1.2397015,-0.12557681,0.040320598,0.0,-0.019829623,-0.6445075,0.2484365,0.19887371,-0.024717107,-0.33650494,0.022251908,-1.7139466,0.9744581,1.5901328,-1.7317922,-0.034063138,422.72272,2.078118,0.2547668,0.3868567,0.13392545,0.096006915,inf,inf,inf,inf,1,1,1,1,2,0,2,1,3,1,1,0
46981094,27966368,34.0362486,108.76083829999999,-0.700793,-11.666212,-1.2165008,-0.12557681,0.040320598,0.0,-0.017353313,-0.6253584,0.26616064,0.21885249,-0.024717107,-0.33650494,0.022251908,2.4986837,-0.21489088,0.26321828,-1.7337271,-0.034063138,422.72272,2.0549173,0.2639176,0.39075425,0.13875169,0.097247414,inf,inf,inf,inf,1,1,1,1,2,0,2,1,3,1,1,0
47080387,27966368,34.0362486,108.76083829999999,-0.68835026,-11.732469,-1.1858867,-0.12557681,0.040320598,0.0,-0.04049543,-0.5907558,0.2924577,0.25265747,-0.024717107,-0.33650494,0.022251908,-1.373032,1.728029,-1.5544734,-1.7341535,-0.034063138,422.72272,2.0243032,0.25456393,0.38842523,0.13368297,0.096023634,inf,inf,inf,inf,1,1,1,1,2,0,2,1,3,1,1,0
47179830,27966368,34.0362486,108.76083829999999,-0.6777143,-11.794917,-1.1501405,-0.12557681,0.040320598,0.0,-0.05954802,-0.5653761,0.326919,0.29523644,-0.024717107,-0.33650494,0.022251908,-1.8468674,0.45370683,-0.6652041,-1.7319454,-0.034063138,422.72272,1.9885571,0.26370752,0.3899227,0.13861021,0.09702225,inf,inf,inf,inf,1,1,1,1,2,0,2,1,3,1,1,0
47278975,27966368,34.0362486,108.76083829999999,-0.6670349,-11.855094,-1.107143,-0.12557681,0.040320598,0.0,-0.05780276,-0.53683686,0.37343645,0.3527748,-0.024717107,-0.33650494,0.022251908,-4.8282423,1.9379586,0.6537527,-1.7279099,-0.034063138,422.72272,1.9455595,0.25439015,0.38762113,0.13340214,0.095807515,inf,inf,inf,inf,1,1,1,1,2,0,2,1,3,1,1,0
47378277,27966368,34.0362486,108.76083829999999,-0.6603429,-11.910975,-1.0631113,-0.12557681,0.040320598,0.0,-0.07576598,-0.5042139,0.3797829,0.36717063,-0.024717107,-0.33650494,0.022251908,-0.70085233,-0.009930676,0.8682396,-1.7242227,-0.034063138,422.72272,1.9015279,0.26351014,0.38910294,0.13804582,0.0967912,inf,inf,inf,inf,1,1,1,1,2,0,2,1,3,1,1,0
47482527,27966368,34.0362486,108.76083829999999,-0.65305334,-11.96537,-1.019734,-0.12557681,0.040320598,0.0,-0.08227141,-0.47346294,0.3653277,0.35723287,-0.024717107,-0.33650494,0.022251908,-2.233943,1.4264314,-1.225962,-1.719801,-0.034063138,422.72272,1.8581505,0.25418985,0.38682052,0.13299854,0.095591016,inf,inf,inf,inf,1,1,1,1,2,0,2,1,3,1,1,0
47571925,27966368,34.0362486,108.76083829999999,-0.64947385,-12.008346,-0.98752874,-0.12557681,0.040320598,0.0,-0.08233944,-0.44107264,0.33123153,0.3238483,-0.024717107,-0.33650494,0.022251908,-0.025591731,0.9632026,-1.875242,-1.7144552,-0.034063138,422.72272,1.8259453,0.26235336,0.39006498,0.13729748,0.09667575,inf,inf,inf,inf,1,1,1,1,2,0,2,1,3,1,1,0
47681193,27966368,34.0362486,108.76083829999999,-0.64510876,-12.057624,-0.95249504,-0.12557681,0.040320598,0.0,-0.094174184,-0.41551432,0.26744497,0.26203543,-0.024717107,-0.33650494,0.022251908,0.19510767,-0.17304868,-1.6217265,-1.7077931,-0.034063138,422.72272,1.7909116,0.25401202,0.3860314,0.13322787,0.09539382,inf,inf,inf,inf,1,1,1,1,2,0,2,1,3,1,1,0
47780408,27966368,34.0362486,108.76083829999999,-0.64323217,-12.099216,-0.9275768,-0.12557681,0.040320598,0.0,-0.101801254,-0.3778075,0.1970325,0.19268769,-0.024717107,-0.33650494,0.022251908,-0.41676813,1.6388702,-2.0986722,-1.700822,-0.034063138,422.72272,1.7659934,0.26312765,0.38989708,0.13830318,0.096641235,inf,inf,inf,inf,1,1,1,1,2,0,2,1,3,1,1,0
47879702,27966368,34.0362486,108.76083829999999,-0.6510236,-12.147886,-0.912844,-0.12557681,0.040320598,0.0,-0.11037,-0.3610111,0.111612104,0.106115386,-0.024717107,-0.33650494,0.022251908,1.2911748,-0.83316195,-0.36998713,-1.6934108,-0.034063138,422.72272,1.7512605,0.25390333,0.3876166,0.13364448,0.09545827,inf,inf,inf,inf,1,1,1,1,2,0,2,1,3,1,1,0
47979158,27966368,34.0362486,108.76083829999999,-0.662605,-12.195495,-0.9066642,-0.12557681,0.040320598,0.0,-0.11648094,-0.33908582,0.027799431,0.021240609,-0.024717107,-0.33650494,0.022251908,-3.530931,-0.6253467,0.5284874,-1.6886514,-0.034063138,422.72272,1.7450807,0.2630418,0.38909206,0.13895294,0.096463725,inf,inf,inf,inf,1,1,1,1,2,0,2,1,3,1,1,0
48078291,27966368,34.0362486,108.76083829999999,-0.6704656,-12.241705,-0.90990627,-0.12557681,0.040320598,0.0,-0.101644285,-0.34719816,-0.05944647,-0.06743059,-0.024717107,-0.33650494,0.022251908,1.1591057,-0.38886288,0.45596877,-1.685556,-0.034063138,422.72272,1.7483227,0.25372094,0.38680944,0.1342351,0.09527431,inf,inf,inf,inf,1,1,1,1,2,0,2,1,3,1,1,0
48177583,27966368,34.0362486,108.76083829999999,-0.67511535,-12.288299,-0.92282903,-0.12557681,0.040320598,0.0,-0.08069458,-0.36801347,-0.14002761,-0.15085708,-0.024717107,-0.33650494,0.022251908,-1.124956,0.29681295,-0.798301,-1.6871703,-0.034063138,422.72272,1.7612455,0.26288095,0.38825673,0.1395609,0.09625459,inf,inf,inf,inf,1,1,1,1,2,0,2,1,3,1,1,0
48276877,27966368,34.0362486,108.76083829999999,-0.6788027,-12.3400755,-0.94184124,-0.12557681,0.040320598,0.0,-0.042184472,-0.40513772,-0.21387874,-0.22563177,-0.024717107,-0.33650494,0.022251908,1.2546661,-0.35359442,-1.5412439,-1.6916299,-0.034063138,422.72272,1.7802577,0.2537829,0.3883722,0.1349201,0.09532657,inf,inf,inf,inf,1,1,1,1,2,0,2,1,3,1,1,0
48376170,27966368,34.0362486,108.76083829999999,-0.68114644,-12.394365,-0.96740335,-0.12557681,0.040320598,0.0,-0.025480675,-0.4657505,-0.28387082,-0.29556462,-0.024717107,-0.33650494,0.022251908,-2.3434386,-1.4877086,0.39273366,-1.6966166,-0.034063138,422.72272,1.8058199,0.26298422,0.38983437,0.14012654,0.096322395,inf,inf,inf,inf,1,1,1,1,2,0,2,1,3,1,1,0
48475466,27966368,34.0362486,108.76083829999999,-0.6796379,-12.454933,-1.0007439,-0.12557681,0.040320598,0.0,0.025224322,-0.5312493,-0.34678277,-0.3601453,-0.024717107,-0.33650494,0.022251908,0.99462783,1.035151,-2.3179498,-1.7009128,-0.034063138,422.72272,1.8391604,0.25375816,0.38755313,0.13533036,0.095157325,inf,inf,inf,inf,1,1,1,1,2,0,2,1,3,1,1,0
48579723,27966368,34.0362486,108.76083829999999,-0.67652684,-12.522363,-1.0401137,-0.12557681,0.040320598,0.0,0.026244158,-0.5956346,-0.37685618,-0.39063585,-0.024717107,-0.33650494,0.022251908,-1.5521622,-0.7792847,0.5320588,-1.7037705,-0.034063138,422.72272,1.8785303,0.26298115,0.389003,0.14051215,0.09613057,inf,inf,inf,inf,1,1,1,1,2,0,2,1,3,1,1,0
48679018,27966368,34.0362486,108.76083829999999,-0.6653172,-12.5874,-1.0798541,-0.12557681,0.040320598,0.0,0.05884549,-0.62410516,-0.39063942,-0.40501565,-0.024717107,-0.33650494,0.022251908,2.890765,1.0602812,-1.6522659,-1.7027771,-0.034063138,422.72272,1.9182706,0.25378868,0.3867331,0.13546246,0.094956614,inf,inf,inf,inf,1,1,1,1,2,0,2,1,3,1,1,0
48778444,27966368,34.0362486,108.76083829999999,-0.65203065,-12.65324,-1.1218461,-0.12557681,0.040320598,0.0,0.050781675,-0.63681114,-0.40134576,-0.4177025,-0.024717107,-0.33650494,0.022251908,2.5612447,1.2324632,-1.7371817,-1.7047508,-0.034063138,422.72272,1.9602625,0.26302627,0.3881777,0.1406415,0.09593404,inf,inf,inf,inf,1,1,1,1,2,0,2,1,3,1,1,0
48877604,27966368,34.0362486,108.76083829999999,-0.64079785,-12.721326,-1.164176,-0.12557681,0.040320598,0.0,0.033158135,-0.65539116,-0.3942481,-0.41233972,-0.024717107,-0.33650494,0.022251908,1.4198457,-0.41626453,-0.04471638,-1.7050592,-0.034063138,422.72272,2.0025926,0.25382397,0.38593414,0.13533059,0.094770156,inf,inf,inf,inf,1,1,1,1,2,0,2,1,3,1,1,0
48976900,27966368,34.0362486,108.76083829999999,-0.6325024,-12.788824,-1.2042718,-0.12557681,0.040320598,0.0,0.018371249,-0.64095235,-0.3693521,-0.38796064,-0.024717107,-0.33650494,0.022251908,2.521611,-1.3194686,0.21164891,-1.7049772,-0.034063138,422.72272,2.0426884,0.26305082,0.38975963,0.1401667,0.0959851,inf,inf,inf,inf,1,1,1,1,2,0,2,1,3,1,1,0
49076200,27966368,34.0362486,108.76083829999999,-0.62958264,-12.865743,-1.2397033,-0.12557681,0.040320598,0.0,0.0013602282,-0.6263275,-0.3296174,-0.34755263,-0.024717107,-0.33650494,0.022251908,3.0753791,0.68825054,-0.075853296,-1.7043849,-0.034063138,422.72272,2.0781198,0.25385174,0.38750094,0.1347663,0.09480776,inf,inf,inf,inf,1,1,1,1,2,0,2,1,3,1,1,0
49175485,27966368,34.0362486,108.76083829999999,-0.6309683,-12.942224,-1.2711533,-0.12557681,0.040320598,0.0,-0.014987289,-0.61425775,-0.286695,-0.3038361,-0.024717107,-0.33650494,0.022251908,-0.28578633,0.9642308,-0.70372796,-1.7045493,-0.034063138,422.72272,2.1095698,0.26305217,0.38893625,0.13929285,0.09575882,inf,inf,inf,inf,1,1,1,1,2,0,2,1,3,1,1,0
49274779,27966368,34.0362486,108.76083829999999,-0.63571554,-13.015043,-1.3031039,-0.12557681,0.040320598,0.0,-0.05464561,-0.58971727,-0.25735587,-0.27793592,-0.024717107,-0.33650494,0.022251908,-1.5789443,2.2003036,-1.684691,-1.7045431,-0.034063138,422.72272,2.1415205,0.2538619,0.38667426,0.1338991,0.09459533,inf,inf,inf,inf,1,1,1,1,2,0,2,1,3,1,1,0
49379037,27966368,34.0362486,108.76083829999999,-0.644186,-13.086054,-1.3336844,-0.12557681,0.040320598,0.0,-0.093407705,-0.58648723,-0.22406328,-0.24811922,-0.024717107,-0.33650494,0.022251908,-0.72099686,-0.9199666,0.71223956,-1.7052081,-0.034063138,422.72272,2.172101,0.26302245,0.38807973,0.13835149,0.09553519,inf,inf,inf,inf,1,1,1,1,2,0,2,1,3,1,1,0
49478334,27966368,34.0362486,108.76083829999999,-0.65323746,-13.152356,-1.359125,-0.12557681,0.040320598,0.0,-0.11605145,-0.564764,-0.20039916,-0.22636285,-0.024717107,-0.33650494,0.022251908,1.1524309,1.3087487,-0.13291886,-1.7046816,-0.034063138,422.72272,2.1975415,0.25374693,0.38820738,0.13296351,0.09461397,inf,inf,inf,inf,1,1,1,1,2,0,2,1,3,1,1,0
49577654,27966368,34.0362486,108.76083829999999,-0.66378987,-13.215376,-1.3821092,-0.12557681,0.040320598,0.0,-0.13406527,-0.5431938,-0.17827336,-0.20567955,-0.024717107,-0.33650494,0.022251908,2.2845728,-0.6805901,0.5106258,-1.7050378,-0.034063138,422.72272,2.2205257,0.26286626,0.3896322,0.13776296,0.095573574,inf,inf,inf,inf,1,1,1,1,2,0,2,1,3,1,1,0
49676964,27966368,34.0362486,108.76083829999999,-0.6735626,-13.282594,-1.3992128,-0.12557681,0.040320598,0.0,-0.123839036,-0.54176056,-0.15955725,-0.18437664,-0.024717107,-0.33650494,0.022251908,2.2482457,0.7797162,-1.0396448,-1.7053753,-0.034063138,422.72272,2.2376294,0.25368577,0.38738462,0.13261779,0.09442304,inf,inf,inf,inf,1,1,1,1,2,0,2,1,3,1,1,0
49776212,27966368,34.0362486,108.76083829999999,-0.6825991,-13.349331,-1.411725,-0.12557681,0.040320598,0.0,-0.13904756,-0.5388681,-0.14315273,-0.16336253,-0.024717107,-0.33650494,0.022251908,-1.4357005,1.143616,-0.9033954,-1.7071315,-0.034063138,422.72272,2.2501416,0.2627786,0.38880354,0.13721278,0.09537552,inf,inf,inf,inf,1,1,1,1,2,0,2,1,3,1,1,0
49875668,27966368,34.0362486,108.76083829999999,-0.6900147,-13.413819,-1.4220277,-0.12557681,0.040320598,0.0,-0.12315485,-0.5379571,-0.13123728,-0.14690991,-0.024717107,-0.33650494,0.022251908,-0.102600515,2.015464,-2.1945765,-1.7070307,-0.034063138,422.72272,2.2604442,0.25358084,0.38656756,0.13211161,0.09421252,inf,inf,inf,inf,1,1,1,1,2,0,2,1,3,1,1,0
49979764,27966368,34.0362486,108.76083829999999,-0.69845587,-13.478323,-1.4307519,-0.12557681,0.040320598,0.0,-0.114709415,-0.5549753,-0.10389049,-0.11473906,-0.024717107,-0.33650494,0.022251908,1.5298867,-1.4861289,1.4280686,-1.7049758,-0.034063138,422.72272,2.2691684,0.2626452,0.3879728,0.13666801,0.095167175,inf,inf,inf,inf,1,1,1,1,2,0,2,1,3,1,1,0
50079073,27966368,34.0362486,108.76083829999999,-0.701073,-13.541087,-1.4375403,-0.12557681,0.040320598,0.0,-0.10601455,-0.5715121,-0.089310765,-0.09622924,-0.024717107,-0.33650494,0.022251908,-0.4593162,0.52237946,-0.004792288,-1.7033948,-0.034063138,422.72272,2.2759569,0.25337547,0.38575846,0.13189974,0.094045356,inf,inf,inf,inf,1,1,1,1,2,0,2,1,3,1,1,0
50173387,27966368,34.0362486,108.76083829999999,-0.70291597,-13.601049,-1.4432284,-0.12557681,0.040320598,0.0,-0.111947335,-0.5887964,-0.06612913,-0.07057119,-0.024717107,-0.33650494,0.022251908,-0.8927655,0.0034802507,1.6487256,-1.7029461,-0.034063138,422.72272,2.2816448,0.26148883,0.38891962,0.13600555,0.09509218,inf,inf,inf,inf,1,1,1,1,2,0,2,1,3,1,1,0
50282610,27966368,34.0362486,108.76083829999999,-0.70401525,-13.673404,-1.447481,-0.12557681,0.040320598,0.0,-0.09766711,-0.61147314,-0.050496202,-0.051942922,-0.024717107,-0.33650494,0.022251908,-0.021522589,-0.47595415,0.9650753,-1.7024962,-0.034063138,422.72272,2.2858975,0.2532876,0.38731727,0.13153175,0.09409257,inf,inf,inf,inf,1,1,1,1,2,0,2,1,3,1,1,0
50371981,27966368,34.0362486,108.76083829999999,-0.70654225,-13.734119,-1.450958,-0.12557681,0.040320598,0.0,-0.109741956,-0.6337026,-0.03760622,-0.03825113,-0.024717107,-0.33650494,0.022251908,-1.0292099,0.40116456,0.7969606,-1.7020099,-0.034063138,422.72272,2.2893746,0.26138544,0.38811022,0.13587376,0.094903104,inf,inf,inf,inf,1,1,1,1,2,0,2,1,3,1,1,0
50481198,27966368,34.0362486,108.76083829999999,-0.70912224,-13.817812,-1.4523335,-0.12557681,0.040320598,0.0,-0.086446315,-0.6866424,-0.011765755,-0.011267134,-0.024717107,-0.33650494,0.022251908,2.4581316,-0.9890851,0.36565757,-1.7012969,-0.034063138,422.72272,2.29075,0.25329775,0.38653517,0.13149786,0.09392964,inf,inf,inf,inf,1,1,1,1,2,0,2,1,3,1,1,0
50580491,27966368,34.0362486,108.76083829999999,-0.7112014,-13.897266,-1.4505551,-0.12557681,0.040320598,0.0,-0.07064424,-0.72927475,0.011615352,0.013340157,-0.024717107,-0.33650494,0.022251908,4.038179,-0.4312957,-0.5601986,-1.7001312,-0.034063138,422.72272,2.2889717,0.26231882,0.3879439,0.13605456,0.094885044,inf,inf,inf,inf,1,1,1,1,2,0,2,1,3,1,1,0
